timestamp,AccX,AccY,AccZ,AngX,AngY,AngZ,Q0,Q1,Q2,Q3
1745167814.6584196,5.028,-5.143,7.092,-35.046,-31.207,-80.414,0.64597,-0.38083,-0.00378,-0.6615
1745167814.7200277,5.301,-5.181,6.977,-35.057,-31.207,-80.327,0.64597,-0.38083,-0.00378,-0.6615
1745167814.7200277,5.301,-5.181,6.977,-35.068,-31.207,-80.233,0.64597,-0.38083,-0.00378,-0.6615
1745167814.721029,5.239,-5.143,6.991,-35.074,-31.223,-80.178,0.64597,-0.38083,-0.00378,-0.6615
1745167814.721029,5.239,-5.143,6.991,-35.079,-31.234,-80.123,0.64597,-0.38083,-0.00378,-0.6615
1745167814.722029,5.224,-4.932,7.015,-35.079,-31.251,-80.068,0.64597,-0.38083,-0.00378,-0.6615
1745167814.722029,5.224,-4.932,7.015,-35.074,-31.267,-80.013,0.64597,-0.38083,-0.00378,-0.6615
1745167814.723029,5.239,-4.942,6.938,-35.079,-31.267,-79.92,0.64597,-0.38083,-0.00378,-0.6615
1745167814.749228,5.239,-4.942,6.938,-35.085,-31.262,-79.827,0.64597,-0.38083,-0.00378,-0.6615
1745167814.749228,5.602,-5.061,6.665,-35.096,-31.251,-79.761,0.65213,-0.38748,-0.01077,-0.65143
1745167814.7504814,5.602,-5.061,6.665,-35.107,-31.245,-79.695,0.65213,-0.38748,-0.01077,-0.65143
1745167814.7504814,5.353,-4.851,6.867,-35.096,-31.229,-79.656,0.65213,-0.38748,-0.01077,-0.65143
1745167814.751483,5.353,-4.851,6.867,-35.085,-31.212,-79.618,0.65213,-0.38748,-0.01077,-0.65143
1745167814.751483,5.133,-4.879,7.005,-35.068,-31.19,-79.541,0.65213,-0.38748,-0.01077,-0.65143
1745167814.752483,5.133,-4.879,7.005,-35.057,-31.163,-79.459,0.65213,-0.38748,-0.01077,-0.65143
1745167814.7534835,5.329,-5.239,6.752,-35.052,-31.124,-79.382,0.65213,-0.38748,-0.01077,-0.65143
1745167814.8260915,5.329,-5.239,6.752,-35.052,-31.086,-79.31,0.65213,-0.38748,-0.01077,-0.65143
1745167814.9488783,5.392,-4.913,6.704,-35.041,-31.058,-79.288,0.65213,-0.38748,-0.01077,-0.65143
1745167815.0144918,5.392,-4.913,6.704,-35.03,-31.036,-79.272,0.65213,-0.38748,-0.01077,-0.65143
1745167815.0144918,4.918,-4.702,7.053,-35.03,-31.031,-79.283,0.65213,-0.38748,-0.01077,-0.65143
1745167815.0154924,4.918,-4.702,7.053,-35.024,-31.025,-79.294,0.65213,-0.38748,-0.01077,-0.65143
1745167815.0154924,4.956,-4.702,7.025,-35.019,-30.992,-79.206,0.65213,-0.38748,-0.01077,-0.65143
1745167815.0164933,4.956,-4.702,7.025,-35.013,-30.959,-79.118,0.65213,-0.38748,-0.01077,-0.65143
1745167815.0164933,5.282,-4.736,6.814,-34.997,-30.916,-79.041,0.65213,-0.38748,-0.01077,-0.65143
1745167815.0174913,5.282,-4.736,6.814,-34.986,-30.866,-78.97,0.65213,-0.38748,-0.01077,-0.65143
1745167815.018493,4.721,-4.932,7.044,-34.986,-30.844,-78.904,0.65213,-0.38748,-0.01077,-0.65143
1745167815.018493,4.721,-4.932,7.044,-34.991,-30.822,-78.843,0.65213,-0.38748,-0.01077,-0.65143
1745167815.0194905,4.884,-5.028,6.948,-35.008,-30.833,-78.788,0.65213,-0.38748,-0.01077,-0.65143
1745167815.0194905,4.884,-5.028,6.948,-35.024,-30.839,-78.734,0.65213,-0.38748,-0.01077,-0.65143
1745167815.0194905,5.042,-4.865,6.819,-35.019,-30.85,-78.69,0.65213,-0.38748,-0.01077,-0.65143
1745167815.0204914,5.042,-4.865,6.819,-35.008,-30.855,-78.651,0.65213,-0.38748,-0.01077,-0.65143
1745167815.0204914,4.817,-4.875,7.029,-35.008,-30.861,-78.613,0.65213,-0.38748,-0.01077,-0.65143
1745167815.0214922,4.817,-4.875,7.029,-35.002,-30.866,-78.574,0.65213,-0.38748,-0.01077,-0.65143
1745167815.0214922,4.927,-4.999,6.9,-34.991,-30.877,-78.519,0.65213,-0.38748,-0.01077,-0.65143
1745167815.0224903,4.927,-4.999,6.9,-34.98,-30.888,-78.459,0.65213,-0.38748,-0.01077,-0.65143
1745167815.0224903,4.999,-5.109,6.809,-34.991,-30.894,-78.404,0.65213,-0.38748,-0.01077,-0.65143
1745167815.0234911,4.999,-5.109,6.809,-35.008,-30.899,-78.344,0.65213,-0.38748,-0.01077,-0.65143
1745167815.0234911,4.918,-5.234,6.929,-35.002,-30.91,-78.289,0.65213,-0.38748,-0.01077,-0.65143
1745167815.0244913,4.918,-5.234,6.929,-35.002,-30.927,-78.228,0.65213,-0.38748,-0.01077,-0.65143
1745167815.0244913,4.985,-5.104,6.823,-34.969,-30.948,-78.179,0.65213,-0.38748,-0.01077,-0.65143
1745167815.0254912,4.985,-5.104,6.823,-34.937,-30.976,-78.124,0.65213,-0.38748,-0.01077,-0.65143
1745167815.0264919,5.167,-4.946,6.618,-34.898,-31.009,-78.124,0.65213,-0.38748,-0.01077,-0.65143
1745167815.0264919,5.167,-4.946,6.618,-34.86,-31.042,-78.124,0.65213,-0.38748,-0.01077,-0.65143
1745167815.0274916,4.999,-4.798,6.747,-34.783,-31.058,-78.113,0.65213,-0.38748,-0.01077,-0.65143
1745167815.0790367,4.999,-4.798,6.747,-34.7,-31.08,-78.107,0.65213,-0.38748,-0.01077,-0.65143
1745167815.1549253,5.08,-4.276,6.857,-34.64,-31.108,-78.107,0.65213,-0.38748,-0.01077,-0.65143
1745167815.155924,5.08,-4.276,6.857,-34.574,-31.135,-78.102,0.65213,-0.38748,-0.01077,-0.65143
1745167815.155924,4.836,-4.372,6.823,-34.552,-31.185,-78.102,0.65213,-0.38748,-0.01077,-0.65143
1745167815.155924,4.836,-4.372,6.823,-34.525,-31.229,-78.102,0.66391,-0.38382,-0.0191,-0.64142
1745167815.156925,4.894,-4.238,6.862,-34.541,-31.311,-78.069,0.66391,-0.38382,-0.0191,-0.64142
1745167815.156925,4.894,-4.238,6.862,-34.557,-31.388,-78.036,0.66391,-0.38382,-0.0191,-0.64142
1745167815.1579256,5.124,-4.262,6.718,-34.585,-31.426,-77.953,0.66391,-0.38382,-0.0191,-0.64142
1745167815.1699257,5.124,-4.262,6.718,-34.607,-31.465,-77.871,0.66391,-0.38382,-0.0191,-0.64142
1745167815.1699257,4.951,-4.195,6.661,-34.629,-31.514,-77.816,0.66391,-0.38382,-0.0191,-0.64142
1745167815.1709256,4.951,-4.195,6.661,-34.651,-31.564,-77.767,0.66391,-0.38382,-0.0191,-0.64142
1745167815.1709256,4.798,-3.926,6.445,-34.656,-31.619,-77.706,0.66391,-0.38382,-0.0191,-0.64142
1745167815.1993349,4.798,-3.926,6.445,-34.667,-31.674,-77.651,0.66391,-0.38382,-0.0191,-0.64142
1745167815.281204,4.463,-4.19,6.479,-34.596,-31.75,-77.646,0.66391,-0.38382,-0.0191,-0.64142
1745167815.281204,4.463,-4.19,6.479,-34.53,-31.827,-77.646,0.66391,-0.38382,-0.0191,-0.64142
1745167815.2822013,4.525,-3.735,6.378,-34.448,-31.97,-77.657,0.66391,-0.38382,-0.0191,-0.64142
1745167815.2822013,4.525,-3.735,6.378,-34.365,-32.113,-77.673,0.66391,-0.38382,-0.0191,-0.64142
1745167815.2832026,4.085,-2.71,6.407,-34.31,-32.289,-77.756,0.66391,-0.38382,-0.0191,-0.64142
1745167815.2832026,4.085,-2.71,6.407,-34.255,-32.459,-77.833,0.66257,-0.38757,-0.02957,-0.64017
1745167815.284204,3.673,-1.575,6.297,-34.283,-32.734,-77.986,0.66257,-0.38757,-0.02957,-0.64017
1745167815.293206,3.462,-0.742,5.995,-34.321,-33.041,-78.157,0.66257,-0.38757,-0.02957,-0.64017
1745167815.2942069,3.462,-0.742,5.995,-34.376,-33.376,-78.354,0.66257,-0.38757,-0.02957,-0.64017
1745167815.2942069,3.859,-0.46,6.105,-34.486,-33.717,-78.486,0.66257,-0.38757,-0.02957,-0.64017
1745167815.2942069,3.859,-0.46,6.105,-34.662,-34.052,-78.552,0.66257,-0.38757,-0.02957,-0.64017
1745167815.3194377,4.314,-1.872,5.296,-34.838,-34.393,-78.541,0.66257,-0.38757,-0.02957,-0.64017
1745167815.4207184,4.314,-1.872,5.296,-35.024,-34.744,-78.437,0.66257,-0.38757,-0.02957,-0.64017
1745167815.4937153,4.434,-2.945,5.047,-35.112,-35.112,-78.371,0.66257,-0.38757,-0.02957,-0.64017
1745167815.494714,4.434,-2.945,5.047,-35.107,-35.491,-78.338,0.66257,-0.38757,-0.02957,-0.64017
1745167815.4957118,4.046,-1.652,5.052,-35.013,-35.947,-78.497,0.66257,-0.38757,-0.02957,-0.64017
1745167815.496715,4.046,-1.652,5.052,-34.816,-36.464,-78.854,0.66257,-0.38757,-0.02957,-0.64017
1745167815.4977129,3.414,-0.541,5.535,-34.656,-37.09,-79.255,0.66257,-0.38757,-0.02957,-0.64017
1745167815.4987144,3.414,-0.541,5.535,-34.53,-37.82,-79.711,0.66257,-0.38757,-0.02957,-0.64017
1745167815.500003,2.806,1.106,5.334,-34.503,-38.6,-80.118,0.66257,-0.38757,-0.02957,-0.64017
1745167815.5010018,2.806,1.106,5.334,-34.574,-39.435,-80.48,0.66257,-0.38757,-0.02957,-0.64017
1745167815.5020032,3.199,1.82,4.396,-34.667,-40.314,-80.799,0.66257,-0.38757,-0.02957,-0.64017
1745167815.503002,3.199,1.82,4.396,-34.783,-41.254,-81.074,0.66257,-0.38757,-0.02957,-0.64017
1745167815.5040007,4.08,1.326,3.409,-34.92,-42.242,-81.398,0.66257,-0.38757,-0.02957,-0.64017
1745167815.5040007,4.08,1.326,3.409,-35.085,-43.292,-81.766,0.66257,-0.38757,-0.02957,-0.64017
1745167815.5050013,5.32,1.523,2.931,-35.118,-44.467,-82.255,0.66257,-0.38757,-0.02957,-0.64017
1745167815.5059998,5.32,1.523,2.931,-35.019,-45.764,-82.881,0.66257,-0.38757,-0.02957,-0.64017
1745167815.5069995,5.195,2.433,3.457,-34.854,-47.098,-83.546,0.66257,-0.38757,-0.02957,-0.64017
1745167815.508001,5.195,2.433,3.457,-34.612,-48.466,-84.265,0.66257,-0.38757,-0.02957,-0.64017
1745167815.508001,5.277,2.998,3.428,-34.695,-49.933,-84.908,0.66257,-0.38757,-0.02957,-0.64017
1745167815.5090003,5.277,2.998,3.428,-35.118,-51.504,-85.457,0.66257,-0.38757,-0.02957,-0.64017
1745167815.5590062,6.517,2.083,2.308,-35.684,-52.998,-85.864,0.66257,-0.38757,-0.02957,-0.64017
1745167815.63464,6.517,2.083,2.308,-36.409,-54.426,-86.105,0.66257,-0.38757,-0.02957,-0.64017
1745167815.6356404,9.093,1.221,0.402,-37.167,-55.838,-86.32,0.66257,-0.38757,-0.02957,-0.64017
1745167815.6356404,9.093,1.221,0.402,-37.963,-57.233,-86.501,0.66257,-0.38757,-0.02957,-0.64017
1745167815.6366434,9.404,0.977,-0.536,-38.595,-58.727,-86.94,0.66257,-0.38757,-0.02957,-0.64017
1745167815.6366434,9.404,0.977,-0.536,-39.04,-60.326,-87.665,0.66257,-0.38757,-0.02957,-0.64017
1745167815.6376402,10.496,1.958,-0.354,-39.375,-62.018,-88.544,0.66257,-0.38757,-0.02957,-0.64017
1745167815.6376402,10.496,1.958,-0.354,-39.578,-63.803,-89.594,0.44867,-0.54987,-0.14801,-0.68872
1745167815.6386478,12.445,2.313,-1.173,-39.781,-65.528,-90.593,0.44867,-0.54987,-0.14801,-0.68872
1745167815.6386478,12.445,2.313,-1.173,-39.996,-67.192,-91.527,0.44867,-0.54987,-0.14801,-0.68872
1745167815.6396432,14.911,2.591,-2.509,-40.408,-68.769,-92.291,0.44867,-0.54987,-0.14801,-0.68872
1745167815.6396432,59.654,10.362,-10.051,-41.072,-70.285,-92.823,0.44867,-0.54987,-0.14801,-0.68872
1745167815.6476388,16.065,2.002,-3.318,-41.918,-71.774,-93.23,0.44867,-0.54987,-0.14801,-0.68872
1745167815.64895,16.065,2.002,-3.318,-42.946,-73.202,-93.516,0.44867,-0.54987,-0.14801,-0.68872
1745167815.649646,17.693,0.407,-4.161,-43.824,-74.647,-94.016,0.44867,-0.54987,-0.14801,-0.68872
1745167815.649646,17.693,0.407,-4.161,-44.506,-76.102,-94.763,0.44867,-0.54987,-0.14801,-0.68872
1745167815.6791918,18.455,1.063,-4.444,-44.846,-77.613,-95.878,0.44867,-0.54987,-0.14801,-0.68872
1745167815.8054912,18.455,1.063,-4.444,-44.681,-79.167,-97.531,0.44867,-0.54987,-0.14801,-0.68872
1745167815.8668416,18.943,3.979,-4.492,-44.072,-80.645,-99.684,0.44867,-0.54987,-0.14801,-0.68872
1745167815.8668416,18.943,3.979,-4.492,-42.77,-82.035,-102.579,0.44867,-0.54987,-0.14801,-0.68872
1745167815.867848,18.502,5.66,-5.468,-41.116,-83.221,-105.881,0.44867,-0.54987,-0.14801,-0.68872
1745167815.8688433,18.502,5.66,-5.468,-39.111,-84.199,-109.578,0.44867,-0.54987,-0.14801,-0.68872
1745167815.8688433,17.899,5.042,-5.909,-37.667,-84.952,-112.703,0.44867,-0.54987,-0.14801,-0.68872
1745167815.8688433,17.899,5.042,-5.909,-37.397,-85.507,-114.648,0.44867,-0.54987,-0.14801,-0.68872
1745167815.8698454,19.015,1.413,-7.805,-37.205,-85.99,-116.62,0.44867,-0.54987,-0.14801,-0.68872
1745167815.8698454,19.015,1.413,-7.805,-37.282,-86.407,-118.444,0.44867,-0.54987,-0.14801,-0.68872
1745167815.8718472,18.459,-3.496,-8.25,-34.898,-86.797,-122.838,0.44867,-0.54987,-0.14801,-0.68872
1745167815.8718472,18.459,-3.496,-8.25,-29.383,-87.127,-130.501,0.44867,-0.54987,-0.14801,-0.68872
1745167815.8728454,16.07,-4.63,-6.062,-21.709,-87.418,-140.273,0.44867,-0.54987,-0.14801,-0.68872
1745167815.8728454,16.07,-4.63,-6.062,-11.525,-87.632,-152.518,0.44867,-0.54987,-0.14801,-0.68872
1745167815.8738456,13.973,-2.677,-5.574,-1.802,-87.792,-164.207,0.44867,-0.54987,-0.14801,-0.68872
1745167815.8738456,13.973,-2.677,-5.574,7.295,-87.929,-175.177,0.44867,-0.54987,-0.14801,-0.68872
1745167815.8748496,12.689,-1.781,-5.952,14.958,-87.973,175.259,0.44867,-0.54987,-0.14801,-0.68872
1745167815.8748496,12.689,-1.781,-5.952,20.38,-87.957,167.91,0.44867,-0.54987,-0.14801,-0.68872
1745167815.8758454,11.985,-1.93,-5.966,23.73,-87.852,162.68,0.44867,-0.54987,-0.14801,-0.68872
1745167815.8758454,11.985,-1.93,-5.966,24.857,-87.682,159.708,0.44867,-0.54987,-0.14801,-0.68872
1745167815.8888485,11.823,-3.491,-5.703,25.494,-87.473,157.346,0.44867,-0.54987,-0.14801,-0.68872
1745167815.8898485,11.823,-3.491,-5.703,25.659,-87.226,155.577,0.44867,-0.54987,-0.14801,-0.68872
1745167815.8898485,12.771,-6.871,-5.679,27.252,-87.171,152.199,0.44867,-0.54987,-0.14801,-0.68872
1745167815.8908424,12.771,-6.871,-5.679,30.586,-87.292,146.898,0.44867,-0.54987,-0.14801,-0.68872
1745167815.9192615,13.202,-8.993,-5.861,32.344,-87.462,143.284,0.44867,-0.54987,-0.14801,-0.68872
1745167815.9755704,13.202,-8.993,-5.861,32.327,-87.682,141.548,0.44867,-0.54987,-0.14801,-0.68872
1745167815.9755704,10.525,-8.078,-4.113,27.812,-87.885,144.52,0.44867,-0.54987,-0.14801,-0.68872
1745167815.976581,10.525,-8.078,-4.113,17.682,-88.028,153.298,0.44867,-0.54987,-0.14801,-0.68872
1745167815.976581,7.944,-8.04,-1.973,4.724,-88.094,165.048,0.44867,-0.54987,-0.14801,-0.68872
1745167815.977579,7.944,-8.04,-1.973,-10.047,-88.039,178.742,0.44867,-0.54987,-0.14801,-0.68872
1745167815.977579,6.153,-6.402,-0.699,-21.995,-87.99,-170.338,-0.0687,-0.6915,0.07053,-0.71558
1745167815.977579,6.153,-6.402,-0.699,-32.124,-87.984,-161.202,-0.0687,-0.6915,0.07053,-0.71558
1745167816.0080338,6.527,-6.402,-1.188,-43.605,-87.88,-150.595,-0.0687,-0.6915,0.07053,-0.71558
1745167816.0090327,6.527,-6.402,-1.188,-55.047,-87.66,-139.911,-0.0687,-0.6915,0.07053,-0.71558
1745167816.0090327,9.227,-7.374,-3.199,-63.885,-87.297,-131.671,-0.0687,-0.6915,0.07053,-0.71558
1745167816.0100331,9.227,-7.374,-3.199,-70.082,-86.814,-125.92,-0.0687,-0.6915,0.07053,-0.71558
1745167816.0390356,8.356,-6.584,-1.24,-74.103,-86.369,-122.272,-0.0687,-0.6915,0.07053,-0.71558
1745167816.128931,8.356,-6.584,-1.24,-76.74,-85.968,-119.916,-0.0687,-0.6915,0.07053,-0.71558
1745167816.1299298,8.284,-5.435,-0.431,-78.898,-85.562,-117.922,-0.0687,-0.6915,0.07053,-0.71558
1745167816.1299298,8.284,-5.435,-0.431,-80.662,-85.155,-116.213,-0.0687,-0.6915,0.07053,-0.71558
1745167816.13093,7.891,-3.788,0.321,-82.623,-84.842,-114.346,-0.0687,-0.6915,0.07053,-0.71558
1745167816.13093,7.891,-3.788,0.321,-84.836,-84.611,-112.286,-0.0687,-0.6915,0.07053,-0.71558
1745167816.131928,8.255,-2.614,-0.287,-87.446,-84.424,-109.836,-0.0687,-0.6915,0.07053,-0.71558
1745167816.131928,8.255,-2.614,-0.287,-90.483,-84.271,-106.968,-0.0687,-0.6915,0.07053,-0.71558
1745167816.1329274,9.026,-1.106,-1.317,-92.785,-84.084,-104.722,-0.0687,-0.6915,0.07053,-0.71558
1745167816.1329274,9.026,-1.106,-1.317,-94.406,-83.875,-103.041,-0.0687,-0.6915,0.07053,-0.71558
1745167816.1339402,9.342,-1.02,-1.293,-95.235,-83.589,-102.063,-0.0687,-0.6915,0.07053,-0.71558
1745167816.1339402,9.342,-1.02,-1.293,-95.345,-83.232,-101.711,-0.0687,-0.6915,0.07053,-0.71558
1745167816.159633,9.203,-1.293,-0.804,-95.317,-82.925,-101.492,-0.0687,-0.6915,0.07053,-0.71558
1745167816.2156303,9.203,-1.293,-0.804,-95.164,-82.667,-101.393,-0.0687,-0.6915,0.07053,-0.71558
1745167816.2156303,8.729,-1.307,0.192,-94.982,-82.43,-101.288,-0.0687,-0.6915,0.07053,-0.71558
1745167816.2156303,8.729,-1.307,0.192,-94.768,-82.227,-101.184,-0.0687,-0.6915,0.07053,-0.71558
1745167816.2166305,9.002,-1.446,0.555,-94.735,-82.035,-100.887,-0.0687,-0.6915,0.07053,-0.71558
1745167816.2166305,9.002,-1.446,0.555,-94.867,-81.843,-100.415,-0.0687,-0.6915,0.07053,-0.71558
1745167816.2176309,9.491,-1.274,0.373,-95.433,-81.711,-99.58,-0.04358,-0.69656,0.14401,-0.70145
1745167816.2176309,9.491,-1.274,0.373,-96.427,-81.634,-98.383,-0.04358,-0.69656,0.14401,-0.70145
1745167816.2482283,9.601,-0.848,0.072,-97.63,-81.568,-96.998,-0.04358,-0.69656,0.14401,-0.70145
1745167816.2492309,9.601,-0.848,0.072,-99.042,-81.513,-95.422,-0.04358,-0.69656,0.14401,-0.70145
1745167816.2492309,9.649,-0.335,0.043,-100.305,-81.469,-93.944,-0.04358,-0.69656,0.14401,-0.70145
1745167816.2504554,9.649,-0.335,0.043,-101.431,-81.431,-92.565,-0.04358,-0.69656,0.14401,-0.70145
1745167816.2790694,9.725,0.024,-0.11,-102.404,-81.381,-91.313,-0.04358,-0.69656,0.14401,-0.70145
1745167816.3488538,9.725,0.024,-0.11,-103.228,-81.326,-90.181,-0.04358,-0.69656,0.14401,-0.70145
1745167816.3488538,10.147,-0.235,-0.627,-103.947,-81.282,-89.138,-0.04358,-0.69656,0.14401,-0.70145
1745167816.3500364,10.147,-0.235,-0.627,-104.579,-81.249,-88.165,-0.04358,-0.69656,0.14401,-0.70145
1745167816.3500364,10.353,-0.23,-0.79,-105.106,-81.233,-87.303,-0.04358,-0.69656,0.14401,-0.70145
1745167816.351036,10.353,-0.23,-0.79,-105.535,-81.238,-86.55,-0.04358,-0.69656,0.14401,-0.70145
1745167816.3520374,10.353,-0.201,-0.579,-105.738,-81.238,-86.001,-0.04358,-0.69656,0.14401,-0.70145
1745167816.3520374,10.353,-0.201,-0.579,-105.705,-81.233,-85.666,-0.04358,-0.69656,0.14401,-0.70145
