timestamp,AccX,AccY,AccZ,AngX,AngY,AngZ,AsX,AsY,AsZ,Q0,Q1,Q2,Q3
1745606156.1822393,6.948,0.68,7.269,5.51,-43.544,-133.248,0.37189,-0.32422,-0.18503,-0.84985
1745606156.1962419,7.068,0.699,7.384,5.488,-43.555,-133.16,0.37189,-0.32422,-0.18503,-0.84985
1745606156.1972415,7.068,0.699,7.384,5.466,-43.572,-133.072,0.37189,-0.32422,-0.18503,-0.84985
1745606156.1972415,7.101,0.613,7.389,5.455,-43.583,-132.99,0.37189,-0.32422,-0.18503,-0.84985
1745606156.213255,7.101,0.613,7.389,5.444,-43.583,-132.902,0.38608,-0.32239,-0.18839,-0.84344
1745606156.2142491,7.025,0.594,7.35,5.449,-43.577,-132.814,0.38608,-0.32239,-0.18839,-0.84344
1745606156.2152472,7.025,0.594,7.35,5.455,-43.566,-132.731,0.38608,-0.32239,-0.18839,-0.84344
1745606156.2162488,6.967,0.747,7.302,5.466,-43.55,-132.643,0.38608,-0.32239,-0.18839,-0.84344
1745606156.273006,6.967,0.747,7.302,5.477,-43.539,-132.561,0.38608,-0.32239,-0.18839,-0.84344
1745606156.2746496,6.958,0.57,7.369,5.488,-43.544,-132.468,0.38608,-0.32239,-0.18839,-0.84344
1745606156.2756498,6.958,0.57,7.369,5.499,-43.561,-132.363,0.38608,-0.32239,-0.18839,-0.84344
1745606156.276648,7.01,0.464,7.307,5.51,-43.583,-132.253,0.38608,-0.32239,-0.18839,-0.84344
1745606156.3042765,7.01,0.464,7.307,5.515,-43.616,-132.138,0.38608,-0.32239,-0.18839,-0.84344
1745606156.3596008,7.149,0.565,7.221,5.521,-43.649,-132.006,0.38608,-0.32239,-0.18839,-0.84344
1745606156.360599,7.149,0.565,7.221,5.526,-43.687,-131.869,0.38608,-0.32239,-0.18839,-0.84344
1745606156.3615985,7.087,0.493,7.144,5.526,-43.72,-131.71,0.38608,-0.32239,-0.18839,-0.84344
1745606156.3626037,7.087,0.493,7.144,5.521,-43.753,-131.534,0.38608,-0.32239,-0.18839,-0.84344
1745606156.3635988,6.967,0.498,7.077,5.504,-43.786,-131.342,0.38608,-0.32239,-0.18839,-0.84344
1745606156.3635988,6.967,0.498,7.077,5.482,-43.819,-131.138,0.38608,-0.32239,-0.18839,-0.84344
1745606156.3645983,7.044,0.579,7.02,5.466,-43.863,-130.935,0.39948,-0.32098,-0.19455,-0.8363
1745606156.3655977,7.044,0.579,7.02,5.449,-43.923,-130.726,0.39948,-0.32098,-0.19455,-0.8363
1745606156.366598,7.096,0.958,6.804,5.427,-43.984,-130.512,0.39948,-0.32098,-0.19455,-0.8363
1745606156.367598,7.096,0.958,6.804,5.411,-44.05,-130.292,0.39948,-0.32098,-0.19455,-0.8363
1745606156.3687663,6.967,1.279,6.756,5.389,-44.127,-130.078,0.39948,-0.32098,-0.19455,-0.8363
1745606156.423508,6.967,1.279,6.756,5.361,-44.209,-129.858,0.39948,-0.32098,-0.19455,-0.8363
1745606156.4679801,7.264,1.03,6.953,5.35,-44.291,-129.655,0.39948,-0.32098,-0.19455,-0.8363
1745606156.4689906,7.264,1.03,6.953,5.345,-44.379,-129.468,0.39948,-0.32098,-0.19455,-0.8363
1745606156.4699895,7.159,1.12,6.852,5.356,-44.462,-129.298,0.39948,-0.32098,-0.19455,-0.8363
1745606156.4829867,7.159,1.12,6.852,5.383,-44.544,-129.155,0.39948,-0.32098,-0.19455,-0.8363
1745606156.4829867,7.264,1.092,6.914,5.427,-44.632,-129.034,0.39948,-0.32098,-0.19455,-0.8363
1745606156.483989,7.264,1.092,6.914,5.482,-44.736,-128.947,0.39948,-0.32098,-0.19455,-0.8363
1745606156.483989,7.125,1.03,6.732,5.559,-44.846,-128.897,0.39948,-0.32098,-0.19455,-0.8363
1745606156.5131261,7.125,1.03,6.732,5.647,-44.962,-128.886,0.39948,-0.32098,-0.19455,-0.8363
1745606156.5141263,7.125,1.456,6.742,5.757,-45.077,-128.903,0.39948,-0.32098,-0.19455,-0.8363
1745606156.515124,7.125,1.456,6.742,5.889,-45.181,-128.963,0.39948,-0.32098,-0.19455,-0.8363
1745606156.5161204,7.436,1.59,6.914,6.037,-45.269,-129.034,0.39948,-0.32098,-0.19455,-0.8363
1745606156.5439997,7.436,1.59,6.914,6.202,-45.33,-129.128,0.39948,-0.32098,-0.19455,-0.8363
1745606156.571992,7.551,1.58,6.914,6.378,-45.379,-129.227,0.39948,-0.32098,-0.19455,-0.8363
1745606156.5729952,7.551,1.58,6.914,6.559,-45.406,-129.331,0.39948,-0.32098,-0.19455,-0.8363
1745606156.573994,7.446,1.537,6.651,6.735,-45.45,-129.43,0.39948,-0.32098,-0.19455,-0.8363
1745606156.5749977,7.446,1.537,6.651,6.905,-45.516,-129.534,0.41376,-0.32556,-0.21371,-0.82281
1745606156.5759943,7.527,1.551,6.517,7.064,-45.61,-129.65,0.41376,-0.32556,-0.21371,-0.82281
1745606156.576991,7.527,1.551,6.517,7.207,-45.725,-129.765,0.41376,-0.32556,-0.21371,-0.82281
1745606156.5779924,7.977,1.317,6.661,7.339,-45.818,-129.88,0.41376,-0.32556,-0.21371,-0.82281
1745606156.6932073,7.977,1.317,6.661,7.465,-45.895,-129.99,0.41376,-0.32556,-0.21371,-0.82281
1745606156.7474058,7.968,1.279,6.642,7.597,-45.912,-130.095,0.41376,-0.32556,-0.21371,-0.82281
1745606156.748399,7.968,1.279,6.642,7.729,-45.873,-130.188,0.41376,-0.32556,-0.21371,-0.82281
1745606156.7494104,7.762,1.255,6.8,7.85,-45.818,-130.281,0.41376,-0.32556,-0.21371,-0.82281
1745606156.7504117,7.762,1.255,6.8,7.96,-45.742,-130.369,0.41376,-0.32556,-0.21371,-0.82281
1745606156.7514136,7.834,1.494,6.656,8.053,-45.681,-130.452,0.41376,-0.32556,-0.21371,-0.82281
1745606156.7524068,7.834,1.494,6.656,8.13,-45.637,-130.54,0.41376,-0.32556,-0.21371,-0.82281
1745606156.7534063,7.982,1.341,6.819,8.179,-45.588,-130.605,0.41376,-0.32556,-0.21371,-0.82281
1745606156.7544136,7.982,1.341,6.819,8.201,-45.538,-130.666,0.41376,-0.32556,-0.21371,-0.82281
1745606156.7554095,7.877,1.092,7.168,8.218,-45.456,-130.704,0.41376,-0.32556,-0.21371,-0.82281
1745606156.7554095,7.877,1.092,7.168,8.212,-45.341,-130.721,0.41376,-0.32556,-0.21371,-0.82281
1745606156.756404,7.618,1.422,7.02,8.207,-45.214,-130.743,0.41376,-0.32556,-0.21371,-0.82281
1745606156.7587607,7.618,1.422,7.02,8.207,-45.082,-130.765,0.41376,-0.32556,-0.21371,-0.82281
1745606156.7594078,7.57,1.618,6.843,8.212,-44.951,-130.798,0.41376,-0.32556,-0.21371,-0.82281
1745606156.760415,7.57,1.618,6.843,8.223,-44.835,-130.842,0.41376,-0.32556,-0.21371,-0.82281
1745606156.7614105,7.834,1.221,6.857,8.24,-44.681,-130.875,0.41376,-0.32556,-0.21371,-0.82281
1745606156.7838726,7.834,1.221,6.857,8.262,-44.506,-130.908,0.41376,-0.32556,-0.21371,-0.82281
1745606156.7838726,7.57,1.082,7.044,8.295,-44.302,-130.946,0.41376,-0.32556,-0.21371,-0.82281
1745606156.785871,7.57,1.082,7.044,8.339,-44.072,-130.984,0.41376,-0.32556,-0.21371,-0.82281
1745606156.786876,7.187,1.077,6.967,8.399,-43.841,-131.056,0.41376,-0.32556,-0.21371,-0.82281
1745606156.813873,7.187,1.077,6.967,8.481,-43.627,-131.16,0.41376,-0.32556,-0.21371,-0.82281
1745606156.8948717,7.025,0.862,7.23,8.569,-43.423,-131.287,0.41376,-0.32556,-0.21371,-0.82281
1745606156.8958716,7.025,0.862,7.23,8.674,-43.237,-131.435,0.40689,-0.3067,-0.21527,-0.83301
1745606156.8968759,6.991,0.426,7.508,8.784,-43.028,-131.583,0.40689,-0.3067,-0.21527,-0.83301
1745606156.903997,6.991,0.426,7.508,8.91,-42.797,-131.726,0.40689,-0.3067,-0.21527,-0.83301
1745606156.9049945,6.718,0.642,7.475,9.036,-42.539,-131.852,0.40689,-0.3067,-0.21527,-0.83301
1745606156.905991,6.718,0.642,7.475,9.174,-42.242,-131.957,0.40689,-0.3067,-0.21527,-0.83301
1745606156.905991,6.416,1.01,7.312,9.327,-41.979,-132.072,0.40689,-0.3067,-0.21527,-0.83301
1745606156.906994,6.416,1.01,7.312,9.498,-41.737,-132.193,0.40689,-0.3067,-0.21527,-0.83301
1745606156.9079924,6.139,1.255,7.302,9.668,-41.545,-132.319,0.40689,-0.3067,-0.21527,-0.83301
1745606156.9079924,6.139,1.255,7.302,9.849,-41.407,-132.451,0.40689,-0.3067,-0.21527,-0.83301
1745606156.9089932,6.555,1.226,7.14,10.009,-41.298,-132.583,0.40689,-0.3067,-0.21527,-0.83301
1745606156.9334373,6.555,1.226,7.14,10.157,-41.232,-132.715,0.40689,-0.3067,-0.21527,-0.83301
1745606156.9834347,6.709,1.618,6.795,10.289,-41.155,-132.841,0.40689,-0.3067,-0.21527,-0.83301
1745606156.9854407,6.709,1.618,6.795,10.41,-41.067,-132.951,0.40689,-0.3067,-0.21527,-0.83301
1745606156.9864397,6.483,1.686,6.771,10.536,-40.984,-133.083,0.40689,-0.3067,-0.21527,-0.83301
1745606156.993441,6.483,1.686,6.771,10.673,-40.902,-133.237,0.40689,-0.3067,-0.21527,-0.83301
1745606156.9954412,6.349,1.633,6.843,10.805,-40.831,-133.412,0.40689,-0.3067,-0.21527,-0.83301
1745606156.996452,6.349,1.633,6.843,10.942,-40.754,-133.621,0.40689,-0.3067,-0.21527,-0.83301
1745606156.9974446,6.503,1.59,6.991,11.085,-40.682,-133.863,0.40689,-0.3067,-0.21527,-0.83301
1745606157.022441,6.503,1.59,6.991,11.228,-40.616,-134.143,0.40689,-0.3067,-0.21527,-0.83301
1745606157.022441,6.483,1.207,7.053,11.387,-40.556,-134.462,0.40689,-0.3067,-0.21527,-0.83301
1745606157.0234373,6.483,1.207,7.053,11.552,-40.501,-134.824,0.40689,-0.3067,-0.21527,-0.83301
1745606157.0244358,6.072,1.441,6.833,11.717,-40.463,-135.214,0.40689,-0.3067,-0.21527,-0.83301
1745606157.0534487,6.072,1.441,6.833,11.893,-40.43,-135.643,0.40689,-0.3067,-0.21527,-0.83301
1745606157.0684457,6.512,1.508,7.029,12.057,-40.391,-136.082,0.40689,-0.3067,-0.21527,-0.83301
1745606157.0694442,6.512,1.508,7.029,12.222,-40.342,-136.527,0.38113,-0.28149,-0.21979,-0.85269
1745606157.0704458,6.249,0.891,7.465,12.371,-40.276,-136.967,0.38113,-0.28149,-0.21979,-0.85269
1745606157.11259,6.249,0.891,7.465,12.513,-40.199,-137.395,0.38113,-0.28149,-0.21979,-0.85269
1745606157.1145906,5.77,0.804,7.422,12.662,-40.155,-137.84,0.38113,-0.28149,-0.21979,-0.85269
1745606157.1159368,5.77,0.804,7.422,12.805,-40.111,-138.279,0.38113,-0.28149,-0.21979,-0.85269
1745606157.1165895,5.459,1.24,7.23,12.953,-40.144,-138.752,0.38113,-0.28149,-0.21979,-0.85269
1745606157.143791,5.459,1.24,7.23,13.107,-40.177,-139.23,0.38113,-0.28149,-0.21979,-0.85269
1745606157.1444438,6.062,0.929,7.599,13.217,-40.182,-139.653,0.38113,-0.28149,-0.21979,-0.85269
1745606157.145441,6.062,0.929,7.599,13.332,-40.188,-140.07,0.38113,-0.28149,-0.21979,-0.85269
1745606157.1464581,5.818,0.795,7.805,13.409,-40.078,-140.383,0.38113,-0.28149,-0.21979,-0.85269
1745606157.173682,5.818,0.795,7.805,13.486,-39.968,-140.696,0.38113,-0.28149,-0.21979,-0.85269
1745606157.2230434,5.54,1.226,7.657,13.535,-39.858,-140.949,0.38113,-0.28149,-0.21979,-0.85269
1745606157.22368,5.54,1.226,7.657,13.579,-39.743,-141.202,0.38113,-0.28149,-0.21979,-0.85269
1745606157.2246807,5.665,1.647,7.863,13.59,-39.683,-141.405,0.38113,-0.28149,-0.21979,-0.85269
1745606157.2331963,5.665,1.647,7.863,13.601,-39.617,-141.608,0.38113,-0.28149,-0.21979,-0.85269
1745606157.2338417,5.717,1.532,7.973,13.568,-39.578,-141.757,0.34442,-0.28119,-0.21548,-0.86935
1745606157.235197,5.717,1.532,7.973,13.541,-39.534,-141.899,0.34442,-0.28119,-0.21548,-0.86935
1745606157.2358413,5.737,1.781,7.527,13.508,-39.501,-142.004,0.34442,-0.28119,-0.21548,-0.86935
1745606157.2638042,5.737,1.781,7.527,13.475,-39.463,-142.108,0.34442,-0.28119,-0.21548,-0.86935
1745606157.2646248,5.751,1.729,7.494,13.447,-39.408,-142.191,0.34442,-0.28119,-0.21548,-0.86935
1745606157.2646248,5.751,1.729,7.494,13.42,-39.353,-142.273,0.34442,-0.28119,-0.21548,-0.86935
1745606157.2656198,5.516,1.666,7.211,13.403,-39.32,-142.361,0.34442,-0.28119,-0.21548,-0.86935
1745606157.2937856,5.516,1.666,7.211,13.387,-39.287,-142.443,0.34442,-0.28119,-0.21548,-0.86935
1745606157.3487563,5.545,1.14,7.254,13.387,-39.287,-142.553,0.34442,-0.28119,-0.21548,-0.86935
1745606157.3507457,5.545,1.14,7.254,13.387,-39.287,-142.657,0.34442,-0.28119,-0.21548,-0.86935
1745606157.351741,5.737,1.259,7.173,13.409,-39.276,-142.784,0.34442,-0.28119,-0.21548,-0.86935
1745606157.38421,5.737,1.259,7.173,13.436,-39.271,-142.905,0.34442,-0.28119,-0.21548,-0.86935
1745606157.3855479,5.545,1.35,7.317,13.486,-39.276,-143.069,0.34442,-0.28119,-0.21548,-0.86935
1745606157.3862069,5.545,1.35,7.317,13.535,-39.276,-143.229,0.34442,-0.28119,-0.21548,-0.86935
1745606157.388213,5.344,1.302,7.441,13.607,-39.287,-143.405,0.34442,-0.28119,-0.21548,-0.86935
1745606157.3895714,5.344,1.302,7.441,13.678,-39.298,-143.575,0.34442,-0.28119,-0.21548,-0.86935
1745606157.3902082,5.191,1.355,7.475,13.766,-39.326,-143.756,0.34442,-0.28119,-0.21548,-0.86935
1745606157.391571,5.191,1.355,7.475,13.854,-39.353,-143.937,0.34442,-0.28119,-0.21548,-0.86935
1745606157.3922093,5.157,1.484,7.724,13.942,-39.391,-144.119,0.34442,-0.28119,-0.21548,-0.86935
1745606157.4139926,5.157,1.484,7.724,14.03,-39.435,-144.3,0.34442,-0.28119,-0.21548,-0.86935
1745606157.4439955,5.1,1.829,7.719,14.101,-39.452,-144.443,0.34442,-0.28119,-0.21548,-0.86935
1745606157.4459991,5.1,1.829,7.719,14.172,-39.463,-144.591,0.32419,-0.28375,-0.2124,-0.87701
1745606157.4469965,5.066,2.15,7.676,14.233,-39.457,-144.717,0.32419,-0.28375,-0.2124,-0.87701
1745606157.4741673,5.066,2.15,7.676,14.293,-39.452,-144.844,0.32419,-0.28375,-0.2124,-0.87701
1745606157.4751685,4.683,2.093,7.714,14.359,-39.424,-144.976,0.32419,-0.28375,-0.2124,-0.87701
1745606157.4761653,4.683,2.093,7.714,14.431,-39.397,-145.107,0.32419,-0.28375,-0.2124,-0.87701
1745606157.4771805,4.602,2.006,7.738,14.507,-39.397,-145.283,0.32419,-0.28375,-0.2124,-0.87701
1745606157.5345182,4.602,2.006,7.738,14.584,-39.397,-145.453,0.32419,-0.28375,-0.2124,-0.87701
1745606157.5837853,4.626,2.27,7.566,14.694,-39.391,-145.646,0.32419,-0.28375,-0.2124,-0.87701
1745606157.5851378,4.626,2.27,7.566,14.81,-39.386,-145.844,0.32419,-0.28375,-0.2124,-0.87701
1745606157.5857713,4.621,2.48,7.508,14.958,-39.408,-146.058,0.32419,-0.28375,-0.2124,-0.87701
1745606157.586775,4.621,2.48,7.508,15.106,-39.424,-146.277,0.32419,-0.28375,-0.2124,-0.87701
1745606157.5877862,4.865,2.442,7.901,15.249,-39.474,-146.481,0.32419,-0.28375,-0.2124,-0.87701
1745606157.588776,4.865,2.442,7.901,15.386,-39.523,-146.689,0.31186,-0.28452,-0.21609,-0.88034
1745606157.5897758,5.368,2.897,8.408,15.458,-39.606,-146.86,0.31186,-0.28452,-0.21609,-0.88034
1745606157.5917733,5.368,2.897,8.408,15.535,-39.688,-147.03,0.31186,-0.28452,-0.21609,-0.88034
1745606157.5927694,6.46,3.112,9.064,15.491,-39.716,-147.112,0.31186,-0.28452,-0.21609,-0.88034
1745606157.5927694,6.46,3.112,9.064,15.452,-39.743,-147.189,0.31186,-0.28452,-0.21609,-0.88034
1745606157.5937753,6.402,2.591,10.013,15.298,-39.716,-147.189,0.31186,-0.28452,-0.21609,-0.88034
1745606157.6234324,6.402,2.591,10.013,15.145,-39.688,-147.195,0.31186,-0.28452,-0.21609,-0.88034
1745606157.6240737,6.876,2.83,9.797,14.919,-39.699,-147.2,0.31186,-0.28452,-0.21609,-0.88034
1745606157.6260767,6.876,2.83,9.797,14.694,-39.705,-147.211,0.31186,-0.28452,-0.21609,-0.88034
1745606157.6270802,7.786,2.887,9.668,14.425,-39.738,-147.217,0.31186,-0.28452,-0.21609,-0.88034
1745606157.6543841,7.786,2.887,9.668,14.15,-39.776,-147.217,0.31186,-0.28452,-0.21609,-0.88034
1745606157.7128518,7.925,3.127,9.692,13.859,-39.809,-147.167,0.31186,-0.28452,-0.21609,-0.88034
1745606157.7138486,7.925,3.127,9.692,13.574,-39.842,-147.123,0.31186,-0.28452,-0.21609,-0.88034
1745606157.714847,8.643,3.122,9.692,13.321,-39.908,-147.079,0.31186,-0.28452,-0.21609,-0.88034
1745606157.7447512,8.643,3.122,9.692,13.068,-39.974,-147.036,0.31186,-0.28452,-0.21609,-0.88034
1745606157.7457538,8.978,2.782,9.357,12.898,-40.095,-147.041,0.31186,-0.28452,-0.21609,-0.88034
1745606157.7469194,8.978,2.782,9.357,12.728,-40.221,-147.047,0.31186,-0.28452,-0.21609,-0.88034
1745606157.7477555,9.146,2.571,8.734,12.601,-40.38,-147.068,0.31186,-0.28452,-0.21609,-0.88034
1745606157.749756,9.146,2.571,8.734,12.48,-40.54,-147.096,0.31186,-0.28452,-0.21609,-0.88034
1745606157.7511113,8.854,2.121,8.001,12.415,-40.743,-147.145,0.31186,-0.28452,-0.21609,-0.88034
1745606157.7517536,8.854,2.121,8.001,12.354,-40.946,-147.195,0.31186,-0.28452,-0.21609,-0.88034
1745606157.7529345,8.174,1.887,6.953,12.365,-41.188,-147.288,0.31186,-0.28452,-0.21609,-0.88034
1745606157.772861,8.174,1.887,6.953,12.382,-41.429,-147.382,0.31186,-0.28452,-0.21609,-0.88034
1745606157.801861,8.509,1.848,7.743,12.442,-41.748,-147.508,0.31186,-0.28452,-0.21609,-0.88034
1745606157.803874,8.509,1.848,7.743,12.497,-42.072,-147.634,0.29691,-0.31177,-0.19629,-0.88092
1745606157.804866,8.926,1.365,8.475,12.563,-42.385,-147.711,0.29691,-0.31177,-0.19629,-0.88092
1745606157.8332121,8.926,1.365,8.475,12.629,-42.698,-147.788,0.29691,-0.31177,-0.19629,-0.88092
1745606157.8338583,9.002,1.211,8.466,12.684,-42.984,-147.799,0.29691,-0.31177,-0.19629,-0.88092
1745606157.8348598,9.002,1.211,8.466,12.739,-43.275,-147.816,0.29691,-0.31177,-0.19629,-0.88092
1745606157.835855,8.782,1.13,8.016,12.827,-43.495,-147.799,0.29691,-0.31177,-0.19629,-0.88092
1745606157.8638582,8.782,1.13,8.016,12.914,-43.715,-147.783,0.29691,-0.31177,-0.19629,-0.88092
1745606157.8648617,8.456,1.207,7.135,12.997,-43.934,-147.733,0.29691,-0.31177,-0.19629,-0.88092
1745606157.866219,8.456,1.207,7.135,13.074,-44.154,-147.689,0.29691,-0.31177,-0.19629,-0.88092
1745606157.86686,7.781,1.293,5.837,13.195,-44.489,-147.689,0.29691,-0.31177,-0.19629,-0.88092
1745606157.8933494,7.781,1.293,5.837,13.321,-44.824,-147.7,0.29691,-0.31177,-0.19629,-0.88092
1745606157.9403489,7.954,0.776,6.144,13.425,-45.275,-147.766,0.29691,-0.31177,-0.19629,-0.88092
1745606157.941358,7.954,0.776,6.144,13.535,-45.72,-147.838,0.29764,-0.33725,-0.20978,-0.86807
1745606157.9423542,8.724,0.895,6.541,13.574,-46.055,-147.865,0.29764,-0.33725,-0.20978,-0.86807
1745606157.9534278,8.724,0.895,6.541,13.618,-46.39,-147.892,0.29764,-0.33725,-0.20978,-0.86807
1745606157.9544253,7.896,1.484,6.359,13.661,-46.571,-147.903,0.29764,-0.33725,-0.20978,-0.86807
1745606157.9555428,7.896,1.484,6.359,13.711,-46.752,-147.914,0.29764,-0.33725,-0.20978,-0.86807
1745606157.9564297,7.312,1.14,6.33,13.815,-46.906,-148.013,0.29764,-0.33725,-0.20978,-0.86807
1745606158.0152066,7.312,1.14,6.33,13.92,-47.065,-148.112,0.29764,-0.33725,-0.20978,-0.86807
1745606158.0642004,6.378,1.369,5.574,14.123,-47.307,-148.326,0.29764,-0.33725,-0.20978,-0.86807
1745606158.0652192,6.378,1.369,5.574,14.332,-47.549,-148.546,0.29764,-0.33725,-0.20978,-0.86807
1745606158.0662043,6.397,0.929,5.104,14.667,-47.873,-148.892,0.29764,-0.33725,-0.20978,-0.86807
1745606158.067208,6.397,0.929,5.104,15.002,-48.192,-149.238,0.29764,-0.33725,-0.20978,-0.86807
1745606158.067208,7.058,0.527,5.851,15.392,-48.494,-149.656,0.29764,-0.33725,-0.20978,-0.86807
1745606158.0692022,7.058,0.527,5.851,15.787,-48.785,-150.073,0.29764,-0.33725,-0.20978,-0.86807
1745606158.0702069,7.063,0.397,5.684,16.172,-48.939,-150.441,0.29764,-0.33725,-0.20978,-0.86807
1745606158.0722077,7.063,0.397,5.684,16.551,-49.092,-150.809,0.29764,-0.33725,-0.20978,-0.86807
1745606158.0732114,6.709,0.311,5.334,16.952,-49.241,-151.216,0.29764,-0.33725,-0.20978,-0.86807
1745606158.0742025,6.709,0.311,5.334,17.353,-49.389,-151.628,0.29764,-0.33725,-0.20978,-0.86807
1745606158.0742025,6.555,0.493,4.994,17.831,-49.537,-152.106,0.29764,-0.33725,-0.20978,-0.86807
1745606158.1342242,6.555,0.493,4.994,18.309,-49.68,-152.578,0.29764,-0.33725,-0.20978,-0.86807
1745606158.1642215,6.732,0.733,5.425,18.787,-49.856,-153.029,0.29764,-0.33725,-0.20978,-0.86807
1745606158.1662257,6.732,0.733,5.425,19.265,-50.032,-153.474,0.29764,-0.33725,-0.20978,-0.86807
1745606158.1675892,7.872,0.809,5.78,19.638,-50.164,-153.792,0.29764,-0.33725,-0.20978,-0.86807
1745606158.1682227,7.872,0.809,5.78,20.012,-50.301,-154.111,0.29764,-0.33725,-0.20978,-0.86807
1745606158.1693175,7.848,1.978,5.267,20.297,-50.301,-154.265,0.27151,-0.3725,-0.24783,-0.85205
1745606158.1702237,7.848,1.978,5.267,20.583,-50.306,-154.418,0.27151,-0.3725,-0.24783,-0.85205
1745606158.1712215,7.254,2.389,5.741,20.803,-50.268,-154.506,0.27151,-0.3725,-0.24783,-0.85205
1745606158.1940215,7.254,2.389,5.741,21.022,-50.235,-154.594,0.27151,-0.3725,-0.24783,-0.85205
1745606158.1950178,7.317,2.72,5.799,21.209,-50.24,-154.698,0.27151,-0.3725,-0.24783,-0.85205
1745606158.1970165,7.317,2.72,5.799,21.407,-50.24,-154.803,0.27151,-0.3725,-0.24783,-0.85205
1745606158.1980207,8.394,2.883,5.89,21.61,-50.235,-154.929,0.27151,-0.3725,-0.24783,-0.85205
1745606158.2230227,7.638,2.284,5.976,21.802,-50.197,-155.028,0.27151,-0.3725,-0.24783,-0.85205
1745606158.224016,7.638,2.284,5.976,21.984,-50.136,-155.099,0.27151,-0.3725,-0.24783,-0.85205
1745606158.2250173,7.585,3.481,5.794,22.143,-50.065,-155.149,0.27151,-0.3725,-0.24783,-0.85205
1745606158.2250173,7.585,3.481,5.794,22.297,-49.982,-155.176,0.27151,-0.3725,-0.24783,-0.85205
1745606158.283814,7.542,2.993,6.005,22.44,-49.916,-155.176,0.27151,-0.3725,-0.24783,-0.85205
1745606158.3398106,7.542,2.993,6.005,22.566,-49.861,-155.149,0.27151,-0.3725,-0.24783,-0.85205
1745606158.3408153,7.374,2.356,5.981,22.692,-49.818,-155.132,0.27151,-0.3725,-0.24783,-0.85205
1745606158.3418128,7.374,2.356,5.981,22.83,-49.785,-155.116,0.27151,-0.3725,-0.24783,-0.85205
1745606158.3428128,6.776,2.126,5.679,22.989,-49.768,-155.132,0.27151,-0.3725,-0.24783,-0.85205
1745606158.3438125,6.776,2.126,5.679,23.176,-49.774,-155.176,0.27151,-0.3725,-0.24783,-0.85205
1745606158.3448157,6.57,1.618,5.368,23.379,-49.785,-155.226,0.27151,-0.3725,-0.24783,-0.85205
1745606158.3448157,6.57,1.618,5.368,23.588,-49.796,-155.281,0.27396,-0.36301,-0.26862,-0.84906
1745606158.3458128,6.22,1.81,4.798,23.785,-49.79,-155.297,0.27396,-0.36301,-0.26862,-0.84906
1745606158.3468153,6.22,1.81,4.798,23.978,-49.763,-155.286,0.27396,-0.36301,-0.26862,-0.84906
1745606158.3468153,6.23,3.045,4.219,24.175,-49.752,-155.275,0.27396,-0.36301,-0.26862,-0.84906
1745606158.347813,6.23,3.045,4.219,24.379,-49.752,-155.264,0.27396,-0.36301,-0.26862,-0.84906
1745606158.4033215,6.177,3.079,4.362,24.593,-49.785,-155.27,0.27396,-0.36301,-0.26862,-0.84906
1745606158.4596848,6.177,3.079,4.362,24.813,-49.839,-155.292,0.27396,-0.36301,-0.26862,-0.84906
1745606158.4613447,5.995,2.72,4.472,25.01,-49.916,-155.292,0.27396,-0.36301,-0.26862,-0.84906
1745606158.46233,5.995,2.72,4.472,25.181,-50.015,-155.281,0.27396,-0.36301,-0.26862,-0.84906
1745606158.4635007,6.292,2.222,4.673,25.307,-50.114,-155.231,0.27396,-0.36301,-0.26862,-0.84906
1745606158.4643302,6.292,2.222,4.673,25.389,-50.213,-155.143,0.27396,-0.36301,-0.26862,-0.84906
1745606158.4643302,6.359,2.351,4.515,25.444,-50.29,-155.023,0.27396,-0.36301,-0.26862,-0.84906
1745606158.4653244,6.359,2.351,4.515,25.477,-50.356,-154.874,0.27396,-0.36301,-0.26862,-0.84906
1745606158.4663267,6.402,2.705,4.602,25.477,-50.444,-154.698,0.27396,-0.36301,-0.26862,-0.84906
1745606158.4663267,6.402,2.705,4.602,25.455,-50.554,-154.501,0.27396,-0.36301,-0.26862,-0.84906
1745606158.4673235,7.034,2.48,4.894,25.417,-50.685,-154.297,0.27396,-0.36301,-0.26862,-0.84906
1745606158.4673235,7.034,2.48,4.894,25.362,-50.839,-154.083,0.27396,-0.36301,-0.26862,-0.84906
1745606158.5234702,7.379,2.442,5.018,25.296,-50.988,-153.858,0.27396,-0.36301,-0.26862,-0.84906
1745606158.5504737,7.379,2.442,5.018,25.225,-51.13,-153.622,0.27396,-0.36301,-0.26862,-0.84906
1745606158.551473,7.685,3.074,5.152,25.164,-51.262,-153.397,0.27396,-0.36301,-0.26862,-0.84906
1745606158.5524724,7.685,3.074,5.152,25.12,-51.383,-153.182,0.27396,-0.36301,-0.26862,-0.84906
1745606158.5545282,7.853,2.964,5.689,25.082,-51.498,-152.979,0.29639,-0.36642,-0.28897,-0.83322
1745606158.555477,7.853,2.964,5.689,25.049,-51.597,-152.776,0.29639,-0.36642,-0.28897,-0.83322
1745606158.5564764,8.284,2.969,5.818,25.032,-51.696,-152.589,0.29639,-0.36642,-0.28897,-0.83322
1745606158.557474,8.284,2.969,5.818,25.027,-51.784,-152.413,0.29639,-0.36642,-0.28897,-0.83322
1745606158.6134465,8.686,3.132,5.751,25.049,-51.855,-152.254,0.29639,-0.36642,-0.28897,-0.83322
1745606158.6154444,8.686,3.132,5.751,25.093,-51.894,-152.1,0.29639,-0.36642,-0.28897,-0.83322
1745606158.61681,8.332,3.098,5.497,25.164,-51.932,-151.963,0.29639,-0.36642,-0.28897,-0.83322
1745606158.617439,8.332,3.098,5.497,25.269,-51.954,-151.848,0.29639,-0.36642,-0.28897,-0.83322
1745606158.6436288,8.576,3.232,5.43,25.384,-51.982,-151.754,0.29639,-0.36642,-0.28897,-0.83322
1745606158.6982756,8.576,3.232,5.43,25.521,-52.009,-151.688,0.29639,-0.36642,-0.28897,-0.83322
1745606158.6992805,8.514,2.983,5.617,25.659,-52.026,-151.633,0.29639,-0.36642,-0.28897,-0.83322
1745606158.7002845,8.514,2.983,5.617,25.801,-52.037,-151.595,0.29639,-0.36642,-0.28897,-0.83322
1745606158.7012775,8.121,2.792,5.478,25.95,-52.026,-151.573,0.29639,-0.36642,-0.28897,-0.83322
1745606158.703274,8.121,2.792,5.478,26.104,-51.993,-151.567,0.29639,-0.36642,-0.28897,-0.83322
1745606158.703274,7.963,2.863,5.353,26.263,-51.938,-151.578,0.29639,-0.36642,-0.28897,-0.83322
1745606158.704275,7.963,2.863,5.353,26.428,-51.866,-151.606,0.29639,-0.36642,-0.28897,-0.83322
1745606158.705274,7.834,3.203,5.004,26.581,-51.79,-151.628,0.29639,-0.36642,-0.28897,-0.83322
1745606158.706273,7.834,3.203,5.004,26.719,-51.702,-151.639,0.29639,-0.36642,-0.28897,-0.83322
1745606158.7072773,7.681,3.342,4.851,26.856,-51.619,-151.65,0.29639,-0.36642,-0.28897,-0.83322
1745606158.7072773,7.681,3.342,4.851,26.988,-51.531,-151.644,0.29639,-0.36642,-0.28897,-0.83322
1745606158.7638392,7.432,2.792,5.052,27.125,-51.471,-151.661,0.29639,-0.36642,-0.28897,-0.83322
1745606158.7948477,7.432,2.792,5.052,27.257,-51.438,-151.688,0.29639,-0.36642,-0.28897,-0.83322
1745606158.7958398,7.369,2.658,5.047,27.389,-51.416,-151.732,0.29639,-0.36642,-0.28897,-0.83322
1745606158.7978394,7.369,2.658,5.047,27.515,-51.411,-151.787,0.29639,-0.36642,-0.28897,-0.83322
1745606158.7988389,7.547,3.285,4.626,27.631,-51.394,-151.831,0.31332,-0.35635,-0.31049,-0.82361
1745606158.799839,7.547,3.285,4.626,27.74,-51.372,-151.864,0.31332,-0.35635,-0.31049,-0.82361
1745606158.8008404,7.321,3.026,4.812,27.839,-51.345,-151.902,0.31332,-0.35635,-0.31049,-0.82361
1745606158.8018432,7.321,3.026,4.812,27.933,-51.317,-151.935,0.31332,-0.35635,-0.31049,-0.82361
1745606158.8229969,7.288,2.921,4.918,28.015,-51.301,-151.968,0.31332,-0.35635,-0.31049,-0.82361
1745606158.824003,7.288,2.921,4.918,28.087,-51.29,-151.996,0.31332,-0.35635,-0.31049,-0.82361
1745606158.825995,7.633,3.117,4.985,28.147,-51.29,-152.018,0.31332,-0.35635,-0.31049,-0.82361
1745606158.8269937,7.633,3.117,4.985,28.202,-51.301,-152.04,0.31332,-0.35635,-0.31049,-0.82361
1745606158.883441,7.427,3.074,4.946,28.246,-51.312,-152.045,0.31332,-0.35635,-0.31049,-0.82361
1745606158.9784582,7.427,3.074,4.946,28.284,-51.317,-152.034,0.31332,-0.35635,-0.31049,-0.82361
1745606158.979437,7.384,3.203,5.033,28.312,-51.339,-152.034,0.31332,-0.35635,-0.31049,-0.82361
1745606158.979437,7.384,3.203,5.033,28.334,-51.378,-152.034,0.31332,-0.35635,-0.31049,-0.82361
1745606158.9804413,7.829,3.328,5.267,28.345,-51.427,-152.04,0.31332,-0.35635,-0.31049,-0.82361
1745606158.9804413,7.829,3.328,5.267,28.356,-51.498,-152.051,0.31332,-0.35635,-0.31049,-0.82361
1745606158.9814396,7.949,3.261,5.344,28.356,-51.564,-152.051,0.31332,-0.35635,-0.31049,-0.82361
1745606158.9824433,7.949,3.261,5.344,28.356,-51.641,-152.04,0.31332,-0.35635,-0.31049,-0.82361
1745606158.9824433,8.193,2.84,5.416,28.356,-51.696,-152.023,0.31332,-0.35635,-0.31049,-0.82361
1745606158.9834366,8.193,2.84,5.416,28.361,-51.735,-152.001,0.31332,-0.35635,-0.31049,-0.82361
1745606158.9834366,8.102,2.729,5.473,28.356,-51.757,-151.968,0.31332,-0.35635,-0.31049,-0.82361
1745606158.9844363,8.102,2.729,5.473,28.339,-51.762,-151.913,0.31332,-0.35635,-0.31049,-0.82361
1745606159.0024436,8.159,2.998,5.435,28.328,-51.757,-151.864,0.31332,-0.35635,-0.31049,-0.82361
1745606159.0024436,8.159,2.998,5.435,28.317,-51.74,-151.809,0.31332,-0.35635,-0.31049,-0.82361
1745606159.0034418,7.728,2.844,5.44,28.328,-51.735,-151.776,0.31332,-0.35635,-0.31049,-0.82361
1745606159.0044425,7.728,2.844,5.44,28.35,-51.74,-151.754,0.31332,-0.35635,-0.31049,-0.82361
1745606159.0337596,7.858,2.835,5.545,28.378,-51.751,-151.743,0.31332,-0.35635,-0.31049,-0.82361
1745606159.0351124,7.858,2.835,5.545,28.416,-51.773,-151.738,0.31332,-0.35635,-0.31049,-0.82361
1745606159.0357602,7.93,2.83,5.502,28.427,-51.768,-151.699,0.31332,-0.35635,-0.31049,-0.82361
1745606159.036762,7.93,2.83,5.502,28.422,-51.746,-151.633,0.31332,-0.35635,-0.31049,-0.82361
1745606159.0641513,7.623,3.098,5.239,28.416,-51.707,-151.545,0.31332,-0.35635,-0.31049,-0.82361
1745606159.065136,7.623,3.098,5.239,28.411,-51.641,-151.447,0.31332,-0.35635,-0.31049,-0.82361
1745606159.0661347,7.547,3.132,5.229,28.416,-51.603,-151.364,0.31876,-0.35474,-0.31818,-0.81927
1745606159.067138,7.547,3.132,5.229,28.444,-51.575,-151.309,0.31876,-0.35474,-0.31818,-0.81927
1745606159.1226223,7.551,2.71,5.272,28.477,-51.575,-151.282,0.31876,-0.35474,-0.31818,-0.81927
1745606159.1759703,7.551,2.71,5.272,28.515,-51.608,-151.276,0.31876,-0.35474,-0.31818,-0.81927
1745606159.1766138,7.57,2.796,4.903,28.553,-51.641,-151.276,0.31876,-0.35474,-0.31818,-0.81927
1745606159.177618,7.57,2.796,4.903,28.592,-51.669,-151.276,0.31876,-0.35474,-0.31818,-0.81927
1745606159.1786134,7.719,3.141,4.99,28.63,-51.685,-151.271,0.31876,-0.35474,-0.31818,-0.81927
1745606159.1786134,7.719,3.141,4.99,28.663,-51.685,-151.26,0.31876,-0.35474,-0.31818,-0.81927
1745606159.1796126,7.355,3.055,5.133,28.685,-51.674,-151.232,0.31876,-0.35474,-0.31818,-0.81927
1745606159.1806154,7.355,3.055,5.133,28.691,-51.647,-151.188,0.31876,-0.35474,-0.31818,-0.81927
1745606159.1836135,7.36,3.251,5.138,28.707,-51.647,-151.177,0.31876,-0.35474,-0.31818,-0.81927
1745606159.1846118,7.36,3.251,5.138,28.729,-51.674,-151.194,0.31876,-0.35474,-0.31818,-0.81927
1745606159.1846118,7.585,3.021,5.133,28.773,-51.713,-151.238,0.31876,-0.35474,-0.31818,-0.81927
1745606159.185611,7.585,3.021,5.133,28.834,-51.773,-151.32,0.31876,-0.35474,-0.31818,-0.81927
1745606159.273489,7.288,2.916,4.918,28.905,-51.833,-151.414,0.31876,-0.35474,-0.31818,-0.81927
1745606159.3038442,7.288,2.916,4.918,28.987,-51.905,-151.529,0.31876,-0.35474,-0.31818,-0.81927
1745606159.3054912,7.46,2.744,4.999,29.081,-51.982,-151.655,0.31876,-0.35474,-0.31818,-0.81927
1745606159.3064878,7.46,2.744,4.999,29.174,-52.059,-151.793,0.31876,-0.35474,-0.31818,-0.81927
1745606159.3074782,7.02,2.423,4.822,29.29,-52.147,-151.946,0.31906,-0.35675,-0.32297,-0.81641
1745606159.3084788,7.02,2.423,4.822,29.416,-52.24,-152.117,0.31906,-0.35675,-0.32297,-0.81641
1745606159.3094788,6.737,2.112,4.525,29.564,-52.35,-152.303,0.31906,-0.35675,-0.32297,-0.81641
1745606159.310478,6.737,2.112,4.525,29.74,-52.482,-152.518,0.31906,-0.35675,-0.32297,-0.81641
1745606159.3114855,6.134,1.499,3.926,29.91,-52.619,-152.715,0.31906,-0.35675,-0.32297,-0.81641
1745606159.31248,6.134,1.499,3.926,30.086,-52.773,-152.897,0.31906,-0.35675,-0.32297,-0.81641
1745606159.3134859,4.214,0.733,2.71,30.223,-52.987,-152.968,0.31906,-0.35675,-0.32297,-0.81641
1745606159.3144822,4.214,0.733,2.71,30.355,-53.201,-153.04,0.31906,-0.35675,-0.32297,-0.81641
1745606159.3637242,0.359,-0.627,0.177,30.421,-53.624,-152.946,0.31906,-0.35675,-0.32297,-0.81641
1745606159.3647304,0.359,-0.627,0.177,30.482,-54.053,-152.847,0.31906,-0.35675,-0.32297,-0.81641
1745606159.3657362,-3.041,-2.519,-3.012,30.284,-54.833,-152.43,0.31906,-0.35675,-0.32297,-0.81641
1745606159.3677254,-3.041,-2.519,-3.012,30.064,-55.618,-152.001,0.31906,-0.35675,-0.32297,-0.81641
1745606159.3935535,-4.87,-5.009,-5.435,28.812,-56.684,-150.529,0.31906,-0.35675,-0.32297,-0.81641
1745606159.4479086,-4.87,-5.009,-5.435,27.405,-57.766,-148.958,0.31906,-0.35675,-0.32297,-0.81641
1745606159.4485497,-6.383,-9.591,-5.057,24.005,-58.914,-145.311,0.31906,-0.35675,-0.32297,-0.81641
1745606159.4485497,-6.383,-9.591,-5.057,20.001,-59.991,-141.103,0.31906,-0.35675,-0.32297,-0.81641
1745606159.45393,-12.962,-32.269,-8.346,14.024,-60.947,-134.681,0.31906,-0.35675,-0.32297,-0.81641
1745606159.45393,-51.858,-129.086,-33.394,7.608,-61.578,-127.815,0.31906,-0.35675,-0.32297,-0.81641
1745606159.4549248,-6.747,-21.514,-5.578,-0.549,-62.243,-119.103,0.40747,-0.43362,-0.27582,-0.75482
1745606159.4559286,-6.747,-21.514,-5.578,-8.893,-62.298,-110.204,0.40747,-0.43362,-0.27582,-0.75482
1745606159.5135307,-4.367,-25.829,-7.23,-19.083,-62.216,-99.476,0.40747,-0.43362,-0.27582,-0.75482
1745606159.571536,-4.367,-25.829,-7.23,-28.845,-61.26,-89.182,0.40747,-0.43362,-0.27582,-0.75482
1745606159.5725467,0.479,-32.183,-5.32,-38.99,-59.084,-78.168,0.40747,-0.43362,-0.27582,-0.75482
1745606159.5735376,0.479,-32.183,-5.32,-47.466,-56.052,-68.829,0.40747,-0.43362,-0.27582,-0.75482
1745606159.575531,0.943,-39.274,-2.916,-54.421,-51.103,-60.656,0.40747,-0.43362,-0.27582,-0.75482
1745606159.5765345,0.943,-39.274,-2.916,-59.579,-45.692,-54.24,0.40747,-0.43362,-0.27582,-0.75482
1745606159.577533,1.489,-50.604,-2.313,-63.391,-38.694,-48.988,0.40747,-0.43362,-0.27582,-0.75482
1745606159.5785332,1.489,-50.604,-2.313,-66.077,-31.52,-44.769,0.40747,-0.43362,-0.27582,-0.75482
1745606159.6036296,-1.144,-61.67,1.59,-68.077,-23.373,-41.611,0.40747,-0.43362,-0.27582,-0.75482
1745606159.6046283,-1.144,-61.67,1.59,-69.478,-15.194,-38.925,0.40747,-0.43362,-0.27582,-0.75482
1745606159.6066287,-2.954,-75.168,8.193,-71.153,-6.993,-35.706,0.40747,-0.43362,-0.27582,-0.75482
1745606159.6076257,-2.954,-75.168,8.193,-72.328,1.23,-32.772,0.40747,-0.43362,-0.27582,-0.75482
1745606159.6086233,-2.562,-73.746,11.272,-72.581,8.284,-28.114,0.40747,-0.43362,-0.27582,-0.75482
1745606159.609643,-2.562,-73.746,11.272,-72.235,15.293,-23.379,0.40747,-0.43362,-0.27582,-0.75482
1745606159.611635,2.327,-95.931,13.096,-70.615,20.314,-16.688,0.40747,-0.43362,-0.27582,-0.75482
1745606159.612634,2.327,-95.931,13.096,-68.307,25.082,-9.624,0.40747,-0.43362,-0.27582,-0.75482
1745606159.6336977,30.493,-80.0,3.778,-64.583,27.828,-4.433,0.40747,-0.43362,-0.27582,-0.75482
1745606159.6647258,30.493,-80.0,3.778,-60.518,30.218,1.055,0.40747,-0.43362,-0.27582,-0.75482
1745606159.6657035,25.158,-57.643,7.101,-56.294,33.146,4.433,0.83609,-0.47513,0.22729,0.15317
1745606159.6666968,25.158,-57.643,7.101,-51.746,35.81,8.179,0.83609,-0.47513,0.22729,0.15317
1745606159.6935606,18.924,-47.678,8.945,-46.538,38.392,12.003,0.83609,-0.47513,0.22729,0.15317
1745606159.6955607,18.924,-47.678,8.945,-40.946,40.644,16.254,0.83609,-0.47513,0.22729,0.15317
1745606159.6969273,16.774,-41.056,6.843,-34.678,42.336,21.286,0.83609,-0.47513,0.22729,0.15317
1745606159.6975617,16.774,-41.056,6.843,-28.098,43.566,26.664,0.83609,-0.47513,0.22729,0.15317
1745606159.7234359,19.881,-36.622,1.628,-21.396,44.313,32.135,0.83609,-0.47513,0.22729,0.15317
1745606159.725424,19.881,-36.622,1.628,-14.595,44.566,37.738,0.83609,-0.47513,0.22729,0.15317
1745606159.7264223,21.442,-30.722,-1.786,-8.015,45.324,43.055,0.83609,-0.47513,0.22729,0.15317
1745606159.7274308,21.442,-30.722,-1.786,-1.329,45.604,48.516,0.83609,-0.47513,0.22729,0.15317
1745606159.7544212,17.037,-26.571,-4.243,4.977,45.368,53.828,0.83609,-0.47513,0.22729,0.15317
1745606159.8004205,17.037,-26.571,-4.243,11.157,44.687,59.03,0.83609,-0.47513,0.22729,0.15317
1745606159.8004205,19.465,-20.609,-7.408,16.326,42.929,63.144,0.81573,-0.09262,0.37579,0.42972
1745606159.8014162,19.465,-20.609,-7.408,21.143,40.886,66.923,0.81573,-0.09262,0.37579,0.42972
1745606159.8134115,21.677,-13.192,-10.745,24.944,38.93,69.714,0.81573,-0.09262,0.37579,0.42972
1745606159.8144119,21.677,-13.192,-10.745,28.499,36.804,72.274,0.81573,-0.09262,0.37579,0.42972
1745606159.8144119,19.489,-3.974,-9.553,31.448,35.392,74.504,0.81573,-0.09262,0.37579,0.42972
1745606159.8154116,19.489,-3.974,-9.553,34.261,33.865,76.608,0.81573,-0.09262,0.37579,0.42972
1745606159.8443334,16.094,2.859,-9.021,36.519,32.75,78.228,0.81573,-0.09262,0.37579,0.42972
1745606159.845339,16.094,2.859,-9.021,38.699,31.597,79.761,0.81573,-0.09262,0.37579,0.42972
1745606159.8463373,16.577,6.455,-11.128,40.298,30.734,80.684,0.81573,-0.09262,0.37579,0.42972
1745606159.8473372,16.577,6.455,-11.128,41.863,29.899,81.557,0.81573,-0.09262,0.37579,0.42972
1745606159.8735173,13.843,7.992,-10.118,44.352,28.987,83.09,0.81573,-0.09262,0.37579,0.42972
1745606159.9111626,13.843,7.992,-10.118,46.752,27.938,84.545,0.81573,-0.09262,0.37579,0.42972
1745606159.9111626,10.472,8.978,-8.519,48.488,26.785,85.353,0.81573,-0.09262,0.37579,0.42972
1745606159.9121554,10.472,8.978,-8.519,50.142,25.56,86.072,0.81573,-0.09262,0.37579,0.42972
1745606159.9637072,9.673,11.329,-7.762,51.268,24.593,86.303,0.81573,-0.09262,0.37579,0.42972
1745606159.9657073,9.673,11.329,-7.762,52.355,23.61,86.49,0.81573,-0.09262,0.37579,0.42972
1745606159.9667027,7.144,11.554,-5.387,53.168,23.022,86.704,0.81573,-0.09262,0.37579,0.42972
1745606159.9677076,7.144,11.554,-5.387,53.965,22.434,86.896,0.81573,-0.09262,0.37579,0.42972
1745606159.9687064,4.161,10.975,-3.275,54.619,22.132,87.231,0.81573,-0.09262,0.37579,0.42972
1745606159.970707,4.161,10.975,-3.275,55.261,21.83,87.55,0.81573,-0.09262,0.37579,0.42972
1745606159.9717202,1.571,10.86,-1.259,55.756,21.654,87.808,0.81573,-0.09262,0.37579,0.42972
1745606159.9727044,1.571,10.86,-1.259,56.245,21.489,88.061,0.68518,0.21719,0.43912,0.53888
1745606159.9937708,-1.197,10.132,0.469,56.547,21.33,88.11,0.68518,0.21719,0.43912,0.53888
1745606160.0467653,-1.197,10.132,0.469,56.843,21.193,88.16,0.68518,0.21719,0.43912,0.53888
1745606160.0467653,-2.514,10.041,1.183,56.959,20.989,88.061,0.68518,0.21719,0.43912,0.53888
1745606160.0477653,-2.514,10.041,1.183,57.068,20.819,87.962,0.68518,0.21719,0.43912,0.53888
1745606160.0527673,-1.829,9.112,2.739,57.025,20.698,87.957,0.68518,0.21719,0.43912,0.53888
1745606160.0527673,-1.829,9.112,2.739,56.97,20.616,87.973,0.68518,0.21719,0.43912,0.53888
1745606160.0537667,-2.619,7.005,4.999,56.942,20.753,88.27,0.68518,0.21719,0.43912,0.53888
1745606160.0547664,-2.619,7.005,4.999,56.893,20.929,88.616,0.68518,0.21719,0.43912,0.53888
1745606160.0838976,-4.64,6.876,5.133,56.86,21.171,89.033,0.68518,0.21719,0.43912,0.53888
1745606160.0838976,-4.64,6.876,5.133,56.805,21.456,89.5,0.68518,0.21719,0.43912,0.53888
1745606160.0848942,-5.095,6.914,4.386,56.662,21.725,89.857,0.68518,0.21719,0.43912,0.53888
1745606160.0858963,-5.095,6.914,4.386,56.497,22.028,90.242,0.68518,0.21719,0.43912,0.53888
1745606160.113942,-5.119,7.561,4.697,56.212,22.363,90.61,0.68518,0.21719,0.43912,0.53888
1745606160.1424932,-5.119,7.561,4.697,55.904,22.72,90.983,0.68518,0.21719,0.43912,0.53888
1745606160.1434808,-4.97,6.407,5.713,55.585,23.115,91.483,0.6723,0.19495,0.45029,0.55417
1745606160.1444867,-4.97,6.407,5.713,55.245,23.516,91.983,0.6723,0.19495,0.45029,0.55417
1745606160.173236,-6.847,6.364,6.68,54.965,23.906,92.532,0.6723,0.19495,0.45029,0.55417
1745606160.1748784,-6.847,6.364,6.68,54.657,24.296,93.076,0.6723,0.19495,0.45029,0.55417
1745606160.1758747,-7.173,6.8,6.206,54.327,24.5,93.477,0.6723,0.19495,0.45029,0.55417
1745606160.1768742,-7.173,6.8,6.206,53.976,24.714,93.867,0.6723,0.19495,0.45029,0.55417
1745606160.2336423,-5.784,6.316,6.091,53.569,24.785,94.136,0.6723,0.19495,0.45029,0.55417
1745606160.2836423,-5.784,6.316,6.091,53.157,24.862,94.4,0.6723,0.19495,0.45029,0.55417
1745606160.2846413,-5.602,5.526,6.713,52.756,24.917,94.625,0.6723,0.19495,0.45029,0.55417
1745606160.2846413,-5.602,5.526,6.713,52.35,24.977,94.834,0.6723,0.19495,0.45029,0.55417
1745606160.2856388,-6.364,5.387,6.268,51.954,24.977,95.01,0.6723,0.19495,0.45029,0.55417
1745606160.2866411,-6.364,5.387,6.268,51.553,24.983,95.175,0.6723,0.19495,0.45029,0.55417
1745606160.2866411,-7.178,7.743,6.014,51.114,24.84,95.356,0.6723,0.19495,0.45029,0.55417
1745606160.2876394,-7.178,7.743,6.014,50.674,24.703,95.532,0.6723,0.19495,0.45029,0.55417
1745606160.293647,-4.381,6.412,6.737,50.175,24.489,95.762,0.6723,0.19495,0.45029,0.55417
1745606160.293647,-4.381,6.412,6.737,49.675,24.269,95.993,0.6723,0.19495,0.45029,0.55417
1745606160.2946405,-4.204,4.822,7.671,49.23,24.181,96.339,0.6723,0.19495,0.45029,0.55417
1745606160.2956421,-4.204,4.822,7.671,48.779,24.082,96.674,0.6723,0.19495,0.45029,0.55417
1745606160.3236272,-5.167,5.21,7.628,48.345,23.994,96.927,0.6723,0.19495,0.45029,0.55417
1745606160.325631,-5.167,5.21,7.628,47.911,23.906,97.174,0.6723,0.19495,0.45029,0.55417
1745606160.3266268,-4.559,5.459,7.183,47.45,23.807,97.311,0.6723,0.19495,0.45029,0.55417
1745606160.327631,-4.559,5.459,7.183,46.994,23.703,97.443,0.6723,0.19495,0.45029,0.55417
1745606160.3545356,-4.741,5.55,7.202,46.593,23.665,97.657,0.6723,0.19495,0.45029,0.55417
1745606160.3827248,-4.741,5.55,7.202,46.192,23.626,97.85,0.6723,0.19495,0.45029,0.55417
1745606160.3827248,-4.884,5.301,7.518,45.846,23.61,98.097,0.65207,0.11029,0.41318,0.62598
1745606160.384737,-4.884,5.301,7.518,45.5,23.599,98.328,0.65207,0.11029,0.41318,0.62598
1745606160.413013,-4.568,4.994,7.69,45.198,23.61,98.542,0.65207,0.11029,0.41318,0.62598
1745606160.415013,-4.568,4.994,7.69,44.89,23.626,98.74,0.65207,0.11029,0.41318,0.62598
1745606160.4163733,-4.731,5.325,7.709,44.594,23.67,98.877,0.65207,0.11029,0.41318,0.62598
1745606160.4170132,-4.731,5.306,7.91,44.297,23.714,98.987,0.65207,0.11029,0.41318,0.62598
1745606160.4435625,-4.731,5.306,7.91,43.995,23.752,99.053,0.65207,0.11029,0.41318,0.62598
1745606160.4445705,-5.009,5.253,8.006,43.709,23.796,99.124,0.65207,0.11029,0.41318,0.62598
1745606160.4455788,-5.009,5.253,8.006,43.44,23.846,99.196,0.65207,0.11029,0.41318,0.62598
1745606160.4465697,-4.831,4.99,7.824,43.182,23.895,99.261,0.65207,0.11029,0.41318,0.62598
1745606160.4737456,-4.831,4.99,7.824,42.935,23.95,99.322,0.65207,0.11029,0.41318,0.62598
1745606160.5188305,-5.042,5.037,7.604,42.698,24.022,99.388,0.65207,0.11029,0.41318,0.62598
1745606160.5198224,-5.042,5.037,7.604,42.473,24.109,99.465,0.65207,0.11029,0.41318,0.62598
1745606160.520829,-5.047,5.43,7.551,42.242,24.208,99.514,0.65207,0.11029,0.41318,0.62598
1745606160.5330765,-5.047,5.43,7.551,42.017,24.313,99.547,0.65207,0.11029,0.41318,0.62598
1745606160.5340889,-4.769,5.224,7.475,41.803,24.434,99.586,0.65207,0.11029,0.41318,0.62598
1745606160.5340889,-4.769,5.224,7.475,41.605,24.565,99.624,0.65207,0.11029,0.41318,0.62598
1745606160.5350847,-5.009,5.037,7.321,41.413,24.708,99.651,0.65207,0.11029,0.41318,0.62598
1745606160.5634181,-5.009,5.037,7.321,41.232,24.868,99.668,0.65207,0.11029,0.41318,0.62598
1745606160.565558,-5.282,5.004,7.235,41.05,25.016,99.662,0.65207,0.11029,0.41318,0.62598
1745606160.5664058,-5.282,5.004,7.235,40.875,25.164,99.63,0.65207,0.11029,0.41318,0.62598
1745606160.5674083,-5.262,5.162,7.116,40.693,25.296,99.564,0.64819,0.06393,0.39206,0.64957
1745606160.5929744,-5.262,5.162,7.116,40.518,25.422,99.47,0.64819,0.06393,0.39206,0.64957
1745606160.644974,-5.181,4.99,7.144,40.347,25.549,99.36,0.64819,0.06393,0.39206,0.64957
1745606160.646969,-5.181,4.99,7.144,40.188,25.681,99.234,0.64819,0.06393,0.39206,0.64957
1745606160.6479762,-5.435,4.899,7.14,40.04,25.818,99.102,0.64819,0.06393,0.39206,0.64957
1745606160.6527166,-5.435,4.899,7.14,39.902,25.961,98.965,0.64819,0.06393,0.39206,0.64957
1745606160.6537147,-5.602,4.851,7.082,39.776,26.109,98.828,0.64819,0.06393,0.39206,0.64957
1745606160.6547225,-5.602,4.851,7.082,39.661,26.274,98.696,0.64819,0.06393,0.39206,0.64957
1745606160.655722,-5.866,4.664,7.096,39.551,26.428,98.558,0.64819,0.06393,0.39206,0.64957
1745606160.6837225,-5.866,4.664,7.096,39.446,26.587,98.416,0.64819,0.06393,0.39206,0.64957
1745606160.6843762,-5.904,4.846,6.91,39.348,26.724,98.262,0.64819,0.06393,0.39206,0.64957
1745606160.6863708,-2.95,2.423,3.452,39.249,26.845,98.086,0.64819,0.06393,0.39206,0.64957
1745606160.6873677,-5.78,4.755,6.809,39.15,26.949,97.91,0.64819,0.06393,0.39206,0.64957
1745606160.7139227,-5.78,4.755,6.809,39.04,27.037,97.734,0.64819,0.06393,0.39206,0.64957
1745606160.742929,-5.784,4.683,6.934,38.93,27.125,97.559,0.64819,0.06393,0.39206,0.64957
1745606160.74393,-5.784,4.683,6.934,38.815,27.213,97.383,0.64819,0.06393,0.39206,0.64957
1745606160.7449353,-5.703,4.693,6.862,38.71,27.296,97.207,0.64819,0.06393,0.39206,0.64957
1745606160.773333,-5.703,4.693,6.862,38.6,27.378,97.037,0.64819,0.06393,0.39206,0.64957
1745606160.775341,-5.559,4.616,6.685,38.491,27.471,96.872,0.66592,0.04535,0.38855,0.63513
1745606160.7763345,-5.559,4.616,6.685,38.381,27.57,96.702,0.66592,0.04535,0.38855,0.63513
1745606160.7763345,-5.77,4.477,6.584,38.271,27.68,96.548,0.66592,0.04535,0.38855,0.63513
1745606160.8034294,-5.77,4.477,6.584,38.156,27.801,96.4,0.66592,0.04535,0.38855,0.63513
1745606160.8044233,-5.622,4.386,6.541,38.04,27.911,96.251,0.66592,0.04535,0.38855,0.63513
1745606160.806425,-5.622,4.386,6.541,37.919,28.021,96.086,0.66592,0.04535,0.38855,0.63513
1745606160.806425,-5.66,4.377,6.689,37.798,28.125,95.916,0.66592,0.04535,0.38855,0.63513
1745606160.8341324,-5.66,4.377,6.689,37.683,28.235,95.735,0.66592,0.04535,0.38855,0.63513
1745606160.9180849,-5.641,4.415,6.685,37.562,28.334,95.543,0.66592,0.04535,0.38855,0.63513
1745606160.9180849,-5.641,4.415,6.685,37.441,28.427,95.35,0.66592,0.04535,0.38855,0.63513
1745606160.9190962,-5.569,4.401,6.665,37.321,28.515,95.147,0.66592,0.04535,0.38855,0.63513
1745606160.9200935,-5.569,4.401,6.665,37.205,28.597,94.944,0.66592,0.04535,0.38855,0.63513
1745606160.9200935,-5.559,4.276,6.728,37.095,28.68,94.741,0.66592,0.04535,0.38855,0.63513
1745606160.921087,-5.559,4.276,6.728,36.985,28.768,94.537,0.66592,0.04535,0.38855,0.63513
1745606160.9220934,-5.732,4.434,6.752,36.887,28.856,94.345,0.66592,0.04535,0.38855,0.63513
1745606160.9240916,-5.732,4.434,6.752,36.788,28.943,94.158,0.66592,0.04535,0.38855,0.63513
1745606160.925096,-5.669,4.405,6.823,36.689,29.026,93.961,0.66592,0.04535,0.38855,0.63513
1745606160.925096,-5.669,4.405,6.823,36.584,29.097,93.757,0.66592,0.04535,0.38855,0.63513
1745606160.9260945,-5.574,4.343,6.819,36.486,29.163,93.549,0.66592,0.04535,0.38855,0.63513
1745606161.0131226,-5.574,4.343,6.819,36.376,29.229,93.329,0.66592,0.04535,0.38855,0.63513
1745606161.0354717,-5.646,4.448,6.747,36.271,29.29,93.104,0.66592,0.04535,0.38855,0.63513
1745606161.0361285,-5.646,4.448,6.747,36.167,29.344,92.878,0.66592,0.04535,0.38855,0.63513
1745606161.0371218,-5.559,4.31,6.795,36.068,29.41,92.659,0.66592,0.04535,0.38855,0.63513
1745606161.0381193,-5.559,4.31,6.795,35.964,29.482,92.444,0.69247,0.03198,0.38315,0.61038
1745606161.0381193,-5.564,4.357,6.771,35.865,29.559,92.236,0.69247,0.03198,0.38315,0.61038
1745606161.039121,-5.564,4.357,6.771,35.766,29.641,92.038,0.69247,0.03198,0.38315,0.61038
1745606161.0401275,-5.598,4.362,6.819,35.662,29.729,91.829,0.69247,0.03198,0.38315,0.61038
1745606161.073331,-5.598,4.362,6.819,35.557,29.817,91.626,0.69247,0.03198,0.38315,0.61038
1745606161.0743303,-5.669,4.281,6.967,35.442,29.899,91.406,0.69247,0.03198,0.38315,0.61038
1745606161.0753374,-5.669,4.281,6.967,35.321,29.976,91.176,0.69247,0.03198,0.38315,0.61038
1745606161.0773976,-5.559,4.128,7.015,35.2,30.042,90.928,0.69247,0.03198,0.38315,0.61038
