timestamp,AccX,AccY,AccZ,AngX,AngY,AngZ,Q0,Q1,Q2,Q3
1745187070.4894302,9.744,-0.508,1.618,-28.032,-82.853,-98.163,0.35568,-0.60388,-0.28293,-0.65472
1745187070.4904287,9.744,-0.508,1.618,-28.021,-82.87,-98.174,0.35568,-0.60388,-0.28293,-0.65472
1745187070.4904287,9.701,-0.407,1.719,-28.004,-82.881,-98.19,0.35568,-0.60388,-0.28293,-0.65472
1745187070.4914284,9.701,-0.407,1.719,-27.971,-82.897,-98.212,0.35568,-0.60388,-0.28293,-0.65472
1745187070.5504758,9.697,-0.431,1.618,-27.949,-82.908,-98.223,0.35568,-0.60388,-0.28293,-0.65472
1745187070.601818,9.697,-0.431,1.618,-27.938,-82.919,-98.212,0.35568,-0.60388,-0.28293,-0.65472
1745187070.603822,9.658,-0.436,1.638,-27.938,-82.93,-98.185,0.35568,-0.60388,-0.28293,-0.65472
1745187070.6048193,9.658,-0.436,1.638,-27.96,-82.936,-98.141,0.35568,-0.60388,-0.28293,-0.65472
1745187070.605819,9.72,-0.373,1.628,-27.949,-82.941,-98.13,0.35568,-0.60388,-0.28293,-0.65472
1745187070.6068203,9.72,-0.373,1.628,-27.916,-82.952,-98.168,0.35568,-0.60388,-0.28293,-0.65472
1745187070.6078131,9.759,-0.421,1.614,-27.916,-82.952,-98.152,0.35568,-0.60388,-0.28293,-0.65472
1745187070.608814,9.759,-0.421,1.614,-27.944,-82.947,-98.075,0.35568,-0.60388,-0.28293,-0.65472
1745187070.6098187,9.759,-0.57,1.513,-27.971,-82.941,-98.009,0.35568,-0.60388,-0.28293,-0.65472
1745187070.6110826,9.759,-0.57,1.513,-27.999,-82.947,-97.954,0.35568,-0.60388,-0.28293,-0.65472
1745187070.6120765,9.701,-0.488,1.666,-27.949,-82.952,-97.982,0.35568,-0.60388,-0.28293,-0.65472
1745187070.613077,9.701,-0.488,1.666,-27.817,-82.952,-98.086,0.35568,-0.60388,-0.28293,-0.65472
1745187070.6714218,9.773,-0.388,1.542,-27.675,-82.958,-98.212,0.35568,-0.60388,-0.28293,-0.65472
1745187070.7064176,9.773,-0.388,1.542,-27.532,-82.963,-98.361,0.35568,-0.60388,-0.28293,-0.65472
1745187070.7079494,9.701,-0.278,1.604,-27.389,-82.963,-98.492,0.35568,-0.60388,-0.28293,-0.65472
1745187070.7091277,9.701,-0.278,1.604,-27.246,-82.958,-98.624,0.35568,-0.60388,-0.28293,-0.65472
1745187070.709944,9.759,-0.249,1.532,-27.175,-82.958,-98.685,0.35632,-0.60315,-0.2858,-0.65378
1745187070.709944,9.759,-0.249,1.532,-27.175,-82.958,-98.674,0.35632,-0.60315,-0.2858,-0.65378
1745187070.7119398,9.859,-0.517,1.719,-27.197,-82.963,-98.641,0.35632,-0.60315,-0.2858,-0.65378
1745187070.7119398,9.859,-0.517,1.719,-27.252,-82.969,-98.586,0.35632,-0.60315,-0.2858,-0.65378
1745187070.76017,9.855,-0.441,1.484,-27.197,-82.958,-98.602,0.35632,-0.60315,-0.2858,-0.65378
1745187070.7621746,9.855,-0.441,1.484,-27.032,-82.936,-98.701,0.35632,-0.60315,-0.2858,-0.65378
1745187070.763173,9.792,-0.421,1.465,-26.862,-82.919,-98.822,0.35632,-0.60315,-0.2858,-0.65378
1745187070.764524,9.792,-0.421,1.465,-26.686,-82.908,-98.976,0.35632,-0.60315,-0.2858,-0.65378
1745187070.7910683,9.826,-0.421,1.475,-26.587,-82.914,-99.075,0.35632,-0.60315,-0.2858,-0.65378
1745187070.815064,9.826,-0.421,1.475,-26.576,-82.93,-99.108,0.35632,-0.60315,-0.2858,-0.65378
1745187070.815064,9.725,-0.383,1.566,-26.505,-82.936,-99.174,0.35632,-0.60315,-0.2858,-0.65378
1745187070.8160634,9.725,-0.383,1.566,-26.378,-82.919,-99.267,0.35632,-0.60315,-0.2858,-0.65378
1745187070.8200607,9.754,-0.498,1.513,-26.213,-82.897,-99.393,0.35632,-0.60315,-0.2858,-0.65378
1745187070.8210642,9.754,-0.498,1.513,-26.021,-82.875,-99.564,0.35632,-0.60315,-0.2858,-0.65378
1745187070.822061,9.658,-0.412,1.652,-25.856,-82.859,-99.739,0.35632,-0.60315,-0.2858,-0.65378
1745187070.82306,9.658,-0.412,1.652,-25.708,-82.859,-99.932,0.35632,-0.60315,-0.2858,-0.65378
1745187070.8813963,9.562,-0.244,1.81,-25.56,-82.848,-100.107,0.35632,-0.60315,-0.2858,-0.65378
1745187070.8823996,9.562,-0.244,1.81,-25.406,-82.831,-100.261,0.35632,-0.60315,-0.2858,-0.65378
1745187070.8834083,9.515,-0.33,1.748,-25.247,-82.809,-100.399,0.35632,-0.60315,-0.2858,-0.65378
1745187070.8843968,9.515,-0.33,1.748,-25.082,-82.782,-100.503,0.35632,-0.60315,-0.2858,-0.65378
1745187070.9108493,9.577,-0.345,1.786,-24.89,-82.744,-100.624,0.358,-0.60019,-0.28754,-0.65485
1745187070.9712782,9.577,-0.345,1.786,-24.686,-82.694,-100.761,0.358,-0.60019,-0.28754,-0.65485
1745187070.9732788,9.519,-0.393,1.939,-24.587,-82.667,-100.805,0.358,-0.60019,-0.28754,-0.65485
1745187070.974626,9.519,-0.393,1.939,-24.494,-82.639,-100.849,0.358,-0.60019,-0.28754,-0.65485
1745187070.9752831,9.524,-0.426,1.877,-24.313,-82.612,-100.964,0.358,-0.60019,-0.28754,-0.65485
1745187070.9766314,9.524,-0.426,1.877,-24.131,-82.584,-101.08,0.358,-0.60019,-0.28754,-0.65485
1745187070.9772782,9.543,-0.273,1.81,-24.093,-82.579,-101.052,0.358,-0.60019,-0.28754,-0.65485
1745187070.978646,9.543,-0.273,1.81,-24.055,-82.568,-101.036,0.358,-0.60019,-0.28754,-0.65485
1745187071.0008624,9.61,-0.34,1.647,-24.044,-82.573,-101.003,0.358,-0.60019,-0.28754,-0.65485
1745187071.0028632,9.61,-0.34,1.647,-24.038,-82.579,-100.97,0.358,-0.60019,-0.28754,-0.65485
1745187071.0038643,9.606,-0.373,1.642,-23.851,-82.573,-101.151,0.358,-0.60019,-0.28754,-0.65485
1745187071.0038643,9.606,-0.373,1.642,-23.665,-82.568,-101.327,0.358,-0.60019,-0.28754,-0.65485
1745187071.0308669,9.51,-0.34,1.614,-23.324,-82.529,-101.607,0.358,-0.60019,-0.28754,-0.65485
1745187071.157263,9.51,-0.34,1.614,-22.994,-82.491,-101.876,0.358,-0.60019,-0.28754,-0.65485
1745187071.15826,9.467,-0.259,1.69,-22.764,-82.463,-102.057,0.358,-0.60019,-0.28754,-0.65485
1745187071.1592605,9.467,-0.259,1.69,-22.538,-82.436,-102.239,0.36264,-0.59549,-0.29108,-0.65503
1745187071.160263,9.361,-0.297,1.911,-22.225,-82.408,-102.508,0.36264,-0.59549,-0.29108,-0.65503
1745187071.160263,9.361,-0.297,1.911,-21.918,-82.381,-102.783,0.36264,-0.59549,-0.29108,-0.65503
1745187071.1612613,9.232,-0.177,1.992,-21.671,-82.375,-103.008,0.36264,-0.59549,-0.29108,-0.65503
1745187071.1612613,9.232,-0.177,1.992,-21.418,-82.37,-103.239,0.36264,-0.59549,-0.29108,-0.65503
1745187071.1612613,9.184,-0.014,2.006,-21.16,-82.348,-103.431,0.36264,-0.59549,-0.29108,-0.65503
1745187071.1622612,9.184,-0.014,2.006,-20.901,-82.321,-103.629,0.36264,-0.59549,-0.29108,-0.65503
1745187071.1622612,9.285,-0.168,1.872,-20.577,-82.31,-103.947,0.36264,-0.59549,-0.29108,-0.65503
1745187071.163261,9.285,-0.168,1.872,-20.259,-82.293,-104.271,0.36264,-0.59549,-0.29108,-0.65503
1745187071.163261,9.117,-0.062,2.069,-20.149,-82.332,-104.442,0.36264,-0.59549,-0.29108,-0.65503
1745187071.1642637,9.117,-0.062,2.069,-20.034,-82.365,-104.623,0.36264,-0.59549,-0.29108,-0.65503
1745187071.1642637,9.098,-0.268,2.073,-19.984,-82.403,-104.683,0.36264,-0.59549,-0.29108,-0.65503
1745187071.1652613,9.098,-0.268,2.073,-19.929,-82.441,-104.744,0.36264,-0.59549,-0.29108,-0.65503
1745187071.210411,9.131,-0.436,1.714,-19.759,-82.474,-104.881,0.36264,-0.59549,-0.29108,-0.65503
1745187071.2117546,9.131,-0.436,1.714,-19.6,-82.507,-105.018,0.36264,-0.59549,-0.29108,-0.65503
1745187071.2124074,9.074,-0.373,1.714,-19.341,-82.568,-105.315,0.36264,-0.59549,-0.29108,-0.65503
1745187071.2137525,9.074,-0.373,1.714,-19.083,-82.628,-105.612,0.36264,-0.59549,-0.29108,-0.65503
1745187071.240331,8.95,-0.144,1.949,-18.726,-82.694,-106.024,0.36264,-0.59549,-0.29108,-0.65503
1745187071.2421343,8.95,-0.144,1.949,-18.358,-82.755,-106.441,0.36264,-0.59549,-0.29108,-0.65503
1745187071.2429864,8.94,0.263,1.791,-18.078,-82.809,-106.743,0.36264,-0.59549,-0.29108,-0.65503
1745187071.2439816,8.94,0.263,1.791,-17.781,-82.859,-107.062,0.36264,-0.59549,-0.29108,-0.65503
1745187071.2703822,8.945,-0.072,1.537,-17.501,-82.914,-107.353,0.36264,-0.59549,-0.29108,-0.65503
1745187071.335046,8.945,-0.072,1.537,-17.216,-82.969,-107.644,0.36264,-0.59549,-0.29108,-0.65503
1745187071.3360486,8.71,-0.062,1.556,-16.968,-83.073,-107.957,0.36264,-0.59549,-0.29108,-0.65503
1745187071.3370528,8.71,-0.062,1.556,-16.716,-83.177,-108.281,0.36264,-0.59549,-0.29108,-0.65503
1745187071.3390512,8.945,0.263,1.642,-16.677,-83.304,-108.397,0.36264,-0.59549,-0.29108,-0.65503
1745187071.340053,8.945,0.263,1.642,-16.622,-83.43,-108.517,0.36264,-0.59549,-0.29108,-0.65503
1745187071.3410566,9.357,-0.445,1.393,-16.441,-83.518,-108.726,0.36264,-0.59549,-0.29108,-0.65503
1745187071.3420568,9.357,-0.445,1.393,-16.276,-83.611,-108.918,0.36264,-0.59549,-0.29108,-0.65503
1745187071.3600316,9.347,-0.934,1.389,-15.573,-83.727,-109.759,0.36264,-0.59549,-0.29108,-0.65503
1745187071.361042,9.347,-0.934,1.389,-14.865,-83.842,-110.599,0.36264,-0.59549,-0.29108,-0.65503
1745187071.3620327,9.093,-0.283,1.58,-13.876,-83.996,-111.736,0.36264,-0.59549,-0.29108,-0.65503
1745187071.36303,9.093,-0.283,1.58,-12.838,-84.15,-112.917,0.36264,-0.59549,-0.29108,-0.65503
1745187071.3911085,8.897,0.268,1.571,-11.838,-84.304,-113.978,0.36264,-0.59549,-0.29108,-0.65503
1745187071.425414,8.897,0.268,1.571,-10.767,-84.457,-115.109,0.36264,-0.59549,-0.29108,-0.65503
1745187071.4264128,8.94,0.666,1.417,-9.921,-84.611,-116.016,0.36264,-0.59549,-0.29108,-0.65503
1745187071.4274127,8.94,0.666,1.417,-8.998,-84.76,-116.993,0.3403,-0.60287,-0.30133,-0.65558
1745187071.4296064,9.021,0.335,1.14,-8.004,-84.919,-118.065,0.3403,-0.60287,-0.30133,-0.65558
1745187071.4304137,9.021,0.335,1.14,-6.938,-85.073,-119.207,0.3403,-0.60287,-0.30133,-0.65558
1745187071.4314888,8.557,0.22,0.852,-5.773,-85.199,-120.416,0.3403,-0.60287,-0.30133,-0.65558
1745187071.4324107,8.557,0.22,0.852,-4.543,-85.32,-121.69,0.3403,-0.60287,-0.30133,-0.65558
1745187071.4801924,8.207,0.441,0.752,-3.356,-85.391,-122.827,0.3403,-0.60287,-0.30133,-0.65558
1745187071.4831822,8.207,0.441,0.752,-2.126,-85.463,-124.008,0.3403,-0.60287,-0.30133,-0.65558
1745187071.4841862,8.437,0.838,1.302,-0.357,-85.644,-125.898,0.3403,-0.60287,-0.30133,-0.65558
1745187071.4851837,8.437,0.838,1.302,1.593,-85.82,-127.958,0.3403,-0.60287,-0.30133,-0.65558
1745187071.5104384,8.605,1.01,1.456,3.658,-85.995,-130.139,0.3403,-0.60287,-0.30133,-0.65558
1745187071.5764418,8.605,1.01,1.456,5.938,-86.166,-132.528,0.3403,-0.60287,-0.30133,-0.65558
1745187071.578442,8.404,0.316,0.79,8.608,-86.237,-135.242,0.3403,-0.60287,-0.30133,-0.65558
1745187071.57944,8.404,0.316,0.79,11.354,-86.298,-138.032,0.3403,-0.60287,-0.30133,-0.65558
1745187071.5814373,7.681,0.742,1.35,15.255,-86.418,-142.048,0.3403,-0.60287,-0.30133,-0.65558
1745187071.5824387,7.681,0.742,1.35,19.402,-86.517,-146.299,0.3403,-0.60287,-0.30133,-0.65558
1745187071.5834396,8.437,1.446,1.36,23.67,-86.644,-150.584,0.3403,-0.60287,-0.30133,-0.65558
1745187071.5844445,8.437,1.446,1.36,28.251,-86.743,-155.187,0.3403,-0.60287,-0.30133,-0.65558
1745187071.6011577,8.782,1.231,0.747,33.865,-86.814,-160.928,0.3403,-0.60287,-0.30133,-0.65558
1745187071.602155,8.782,1.231,0.747,39.683,-86.847,-166.871,0.3403,-0.60287,-0.30133,-0.65558
1745187071.603154,8.418,1.781,1.216,45.467,-86.841,-172.771,0.3403,-0.60287,-0.30133,-0.65558
1745187071.604154,8.418,1.781,1.216,51.163,-86.797,-178.588,0.3403,-0.60287,-0.30133,-0.65558
1745187071.631318,8.423,2.102,1.379,57.442,-86.77,175.1,0.3403,-0.60287,-0.30133,-0.65558
1745187071.6663165,8.423,2.102,1.379,63.512,-86.704,168.997,0.3403,-0.60287,-0.30133,-0.65558
1745187071.6673112,8.011,2.945,0.953,70.098,-86.633,162.449,0.3403,-0.60287,-0.30133,-0.65558
1745187071.6683223,8.011,2.945,0.953,76.328,-86.517,156.264,0.29852,-0.61877,-0.32724,-0.64868
1745187071.6703224,7.642,4.032,1.087,83.381,-86.331,148.991,0.29852,-0.61877,-0.32724,-0.64868
1745187071.6713228,7.642,4.032,1.087,89.583,-86.083,142.592,0.29852,-0.61877,-0.32724,-0.64868
1745187071.672321,7.906,4.19,1.547,94.697,-85.847,137.098,0.29852,-0.61877,-0.32724,-0.64868
1745187071.6733146,7.906,4.19,1.547,99.113,-85.573,132.319,0.29852,-0.61877,-0.32724,-0.64868
1745187071.7209022,9.041,3.223,0.594,103.288,-85.391,128.057,0.29852,-0.61877,-0.32724,-0.64868
1745187071.7219026,9.041,3.223,0.594,107.111,-85.182,124.146,0.29852,-0.61877,-0.32724,-0.64868
1745187071.7229016,9.371,2.519,-0.192,109.924,-84.875,121.091,0.29852,-0.61877,-0.32724,-0.64868
1745187071.7238984,9.371,2.519,-0.192,112.423,-84.545,118.345,0.29852,-0.61877,-0.32724,-0.64868
1745187071.75106,8.581,2.911,0.268,113.851,-84.1,116.543,0.29852,-0.61877,-0.32724,-0.64868
1745187071.7930565,8.581,2.911,0.268,115.043,-83.655,114.972,0.29852,-0.61877,-0.32724,-0.64868
1745187071.7940524,8.485,4.52,0.273,117.411,-83.177,112.297,0.29852,-0.61877,-0.32724,-0.64868
1745187071.795057,8.485,4.52,0.273,119.405,-82.689,110.006,0.29852,-0.61877,-0.32724,-0.64868
1745187071.7960558,9.596,4.817,-0.594,121.009,-82.354,108.243,0.29852,-0.61877,-0.32724,-0.64868
1745187071.7970567,9.596,4.817,-0.594,122.459,-82.007,106.644,0.29852,-0.61877,-0.32724,-0.64868
1745187071.798053,10.113,3.51,-1.087,122.487,-81.689,106.276,0.29852,-0.61877,-0.32724,-0.64868
1745187071.7990546,10.113,3.51,-1.087,122.52,-81.37,105.897,0.29852,-0.61877,-0.32724,-0.64868
1745187071.840283,10.482,2.749,-1.925,121.102,-80.997,106.754,0.29852,-0.61877,-0.32724,-0.64868
1745187071.8412862,10.482,2.749,-1.925,119.822,-80.618,107.463,0.29852,-0.61877,-0.32724,-0.64868
1745187071.8422854,10.104,4.487,-2.025,118.894,-80.096,107.853,0.29852,-0.61877,-0.32724,-0.64868
1745187071.8432877,10.104,4.487,-2.025,118.043,-79.568,108.171,0.29852,-0.61877,-0.32724,-0.64868
1745187071.8696563,11.334,4.496,-2.093,116.62,-79.129,109.314,0.21234,-0.65317,-0.34036,-0.64212
1745187071.9279997,11.334,4.496,-2.093,115.318,-78.684,110.336,0.21234,-0.65317,-0.34036,-0.64212
1745187071.9289997,11.602,2.231,-2.217,114.34,-78.228,111.116,0.21234,-0.65317,-0.34036,-0.64212
1745187071.9289997,11.602,2.231,-2.217,113.467,-77.778,111.786,0.21234,-0.65317,-0.34036,-0.64212
1745187071.9299996,11.262,1.944,-2.045,114.159,-77.327,110.863,0.21234,-0.65317,-0.34036,-0.64212
1745187071.9310033,11.262,1.944,-2.045,114.813,-76.888,109.968,0.21234,-0.65317,-0.34036,-0.64212
1745187071.9310033,11.813,2.069,-2.04,116.801,-76.426,108.116,0.21234,-0.65317,-0.34036,-0.64212
1745187071.9319973,11.813,2.069,-2.04,118.674,-75.954,106.386,0.21234,-0.65317,-0.34036,-0.64212
1745187071.9607964,11.837,2.126,-2.715,121.146,-75.212,104.354,0.21234,-0.65317,-0.34036,-0.64212
1745187071.9607964,11.837,2.126,-2.715,123.404,-74.454,102.53,0.21234,-0.65317,-0.34036,-0.64212
1745187071.9617918,11.995,2.576,-3.098,125.689,-73.839,100.448,0.21234,-0.65317,-0.34036,-0.64212
1745187071.9628005,11.995,2.576,-3.098,127.804,-73.196,98.531,0.21234,-0.65317,-0.34036,-0.64212
1745187071.990828,11.981,1.647,-3.467,129.221,-73.032,96.795,0.21234,-0.65317,-0.34036,-0.64212
1745187072.0254767,11.372,1.944,-4.027,130.32,-72.828,95.339,0.21234,-0.65317,-0.34036,-0.64212
1745187072.0254767,11.372,1.944,-4.027,131.111,-72.592,94.169,0.21234,-0.65317,-0.34036,-0.64212
1745187072.027498,12.062,1.489,-3.974,131.808,-72.477,92.999,0.16757,-0.67896,-0.37054,-0.61118
1745187072.0288286,12.062,1.489,-3.974,132.44,-72.488,91.813,0.16757,-0.67896,-0.37054,-0.61118
1745187072.030481,12.191,0.493,-3.357,133.028,-72.614,90.742,0.16757,-0.67896,-0.37054,-0.61118
1745187072.0314872,12.191,0.493,-3.357,133.588,-72.85,89.758,0.16757,-0.67896,-0.37054,-0.61118
1745187072.0324802,12.196,0.077,-2.423,134.209,-73.081,88.841,0.16757,-0.67896,-0.37054,-0.61118
1745187072.0810606,12.196,0.077,-2.423,134.885,-73.306,87.99,0.16757,-0.67896,-0.37054,-0.61118
1745187072.0830605,12.541,-0.326,-2.562,135.736,-73.4,86.957,0.16757,-0.67896,-0.37054,-0.61118
1745187072.0840585,12.541,-0.326,-2.562,136.741,-73.372,85.765,0.16757,-0.67896,-0.37054,-0.61118
1745187072.0850606,12.215,0.12,-2.619,137.873,-73.224,84.435,0.16757,-0.67896,-0.37054,-0.61118
1745187072.1107438,12.215,0.12,-2.619,139.092,-72.966,83.002,0.16757,-0.67896,-0.37054,-0.61118
1745187072.174141,11.626,1.815,-3.017,140.125,-72.751,81.821,0.16757,-0.67896,-0.37054,-0.61118
1745187072.174787,11.626,1.815,-3.017,140.977,-72.587,80.87,0.16757,-0.67896,-0.37054,-0.61118
1745187072.175791,12.172,1.173,-3.093,141.746,-72.592,79.997,0.16757,-0.67896,-0.37054,-0.61118
1745187072.1767905,12.172,1.173,-3.093,142.46,-72.768,79.156,0.16757,-0.67896,-0.37054,-0.61118
1745187072.1777904,11.933,0.723,-2.562,142.872,-72.955,78.536,0.16757,-0.67896,-0.37054,-0.61118
1745187072.1787906,11.933,0.723,-2.562,142.976,-73.152,78.14,0.16757,-0.67896,-0.37054,-0.61118
1745187072.1797829,11.87,0.369,-2.413,143.306,-73.367,77.52,0.16757,-0.67896,-0.37054,-0.61118
1745187072.2010095,11.87,0.369,-2.413,143.871,-73.592,76.668,0.16757,-0.67896,-0.37054,-0.61118
1745187072.2033863,12.215,0.239,-2.313,144.684,-73.702,75.635,0.16757,-0.67896,-0.37054,-0.61118
1745187072.2033863,12.215,0.239,-2.313,145.728,-73.685,74.438,0.16757,-0.67896,-0.37054,-0.61118
1745187072.2053986,10.961,0.905,-2.523,147.25,-73.493,72.642,0.16757,-0.67896,-0.37054,-0.61118
1745187072.261291,10.961,0.905,-2.523,149.178,-73.103,70.323,0.16757,-0.67896,-0.37054,-0.61118
1745187072.2962065,12.895,0.862,-2.844,150.518,-72.872,68.351,0.16757,-0.67896,-0.37054,-0.61118
1745187072.2979534,12.895,0.862,-2.844,151.342,-72.806,66.654,0.15143,-0.73038,-0.30887,-0.59003
1745187072.298941,12.124,1.542,-3.869,151.611,-73.021,65.698,0.15143,-0.73038,-0.30887,-0.59003
1745187072.299938,12.124,1.542,-3.869,151.331,-73.515,65.468,0.15143,-0.73038,-0.30887,-0.59003
1745187072.300939,11.08,3.069,-4.592,150.557,-73.971,65.22,0.15143,-0.73038,-0.30887,-0.59003
1745187072.3029394,11.08,3.069,-4.592,149.271,-74.388,65.001,0.15143,-0.73038,-0.30887,-0.59003
1745187072.3039377,12.646,-1.417,-2.035,148.607,-74.68,64.44,0.15143,-0.73038,-0.30887,-0.59003
1745187072.3205004,12.646,-1.417,-2.035,148.612,-74.855,63.495,0.15143,-0.73038,-0.30887,-0.59003
1745187072.3228676,10.889,0.469,-3.179,148.293,-75.168,63.029,0.15143,-0.73038,-0.30887,-0.59003
1745187072.323501,10.889,0.469,-3.179,147.623,-75.619,63.083,0.15143,-0.73038,-0.30887,-0.59003
1745187072.3245091,11.248,0.292,-2.442,147.173,-76.003,62.891,0.15143,-0.73038,-0.30887,-0.59003
1745187072.351489,11.248,0.292,-2.442,146.953,-76.317,62.435,0.15143,-0.73038,-0.30887,-0.59003
1745187072.3524864,10.865,-0.565,-2.198,146.613,-76.696,62.265,0.15143,-0.73038,-0.30887,-0.59003
1745187072.3534865,10.865,-0.565,-2.198,146.129,-77.146,62.391,0.15143,-0.73038,-0.30887,-0.59003
1745187072.3544905,10.654,0.215,-2.011,145.552,-77.602,62.655,0.15143,-0.73038,-0.30887,-0.59003
1745187072.4110029,10.654,0.215,-2.011,144.86,-78.069,63.078,0.15143,-0.73038,-0.30887,-0.59003
1745187072.478903,9.96,0.225,-1.197,144.388,-78.503,63.309,0.11435,-0.72964,-0.22372,-0.63589
1745187072.4795494,9.96,0.225,-1.197,144.157,-78.893,63.325,0.11435,-0.72964,-0.22372,-0.63589
1745187072.4825513,9.687,0.134,-1.058,143.833,-79.31,63.452,0.11435,-0.72964,-0.22372,-0.63589
1745187072.483553,9.687,0.134,-1.058,143.399,-79.75,63.704,0.11435,-0.72964,-0.22372,-0.63589
1745187072.4845483,9.859,-0.215,-0.608,143.02,-80.195,63.88,0.11435,-0.72964,-0.22372,-0.63589
1745187072.4857922,9.859,-0.215,-0.608,142.696,-80.656,63.973,0.11435,-0.72964,-0.22372,-0.63589
1745187072.4865477,9.893,-0.881,-0.072,142.41,-81.101,64.012,0.11435,-0.72964,-0.22372,-0.63589
1745187072.487549,9.893,-0.881,-0.072,142.174,-81.519,63.968,0.11435,-0.72964,-0.22372,-0.63589
1745187072.488546,10.032,-1.183,-0.359,142.053,-81.903,63.885,0.11435,-0.72964,-0.22372,-0.63589
1745187072.4899032,10.032,-1.183,-0.359,142.064,-82.249,63.743,0.11435,-0.72964,-0.22372,-0.63589
1745187072.4909055,9.471,-0.364,-1.025,142.471,-82.485,63.116,0.11435,-0.72964,-0.22372,-0.63589
1745187072.5316024,9.471,-0.364,-1.025,143.284,-82.606,62.001,0.11435,-0.72964,-0.22372,-0.63589
1745187072.5795915,9.807,-0.172,-1.331,144.229,-82.842,60.925,0.11435,-0.72964,-0.22372,-0.63589
1745187072.5805924,9.807,-0.172,-1.331,145.36,-83.199,59.815,0.11435,-0.72964,-0.22372,-0.63589
1745187072.5805924,9.807,-1.159,-0.934,146.255,-83.6,58.953,0.11435,-0.72964,-0.22372,-0.63589
1745187072.5816016,9.807,-1.159,-0.934,146.92,-84.051,58.348,0.12689,-0.71539,-0.18167,-0.66257
1745187072.5816016,9.711,-1.992,-0.225,147.728,-84.43,57.557,0.12689,-0.71539,-0.18167,-0.66257
1745187072.582595,9.711,-1.992,-0.225,148.694,-84.727,56.574,0.12689,-0.71539,-0.18167,-0.66257
1745187072.5835965,9.998,-2.313,-0.292,149.019,-85.062,56.272,0.12689,-0.71539,-0.18167,-0.66257
1745187072.5899627,9.998,-2.313,-0.292,148.568,-85.419,56.772,0.12689,-0.71539,-0.18167,-0.66257
1745187072.5899627,10.008,-1.585,-0.991,147.623,-85.743,57.75,0.12689,-0.71539,-0.18167,-0.66257
1745187072.5909624,10.008,-1.585,-0.991,146.074,-86.028,59.299,0.12689,-0.71539,-0.18167,-0.66257
1745187072.591968,10.343,-1.906,-1.255,144.63,-86.204,60.672,0.12689,-0.71539,-0.18167,-0.66257
1745187072.6504498,10.343,-1.906,-1.255,143.454,-86.265,61.721,0.12689,-0.71539,-0.18167,-0.66257
1745187072.7168696,9.73,-1.317,-0.589,142.256,-86.309,62.787,0.12689,-0.71539,-0.18167,-0.66257
1745187072.7184699,9.73,-1.317,-0.589,141.031,-86.331,63.891,0.12689,-0.71539,-0.18167,-0.66257
1745187072.7204945,9.361,-0.757,-0.742,139.999,-86.353,64.836,0.12689,-0.71539,-0.18167,-0.66257
1745187072.7214954,9.361,-0.757,-0.742,139.158,-86.364,65.621,0.12689,-0.71539,-0.18167,-0.66257
1745187072.7224956,8.82,-0.517,-0.273,139.131,-86.32,65.561,0.12689,-0.71539,-0.18167,-0.66257
1745187072.7234952,8.82,-0.517,-0.273,139.867,-86.232,64.704,0.12689,-0.71539,-0.18167,-0.66257
1745187072.724496,8.988,-1.063,0.235,139.966,-86.215,64.578,0.12689,-0.71539,-0.18167,-0.66257
1745187072.725495,8.988,-1.063,0.235,139.449,-86.281,65.154,0.12689,-0.71539,-0.18167,-0.66257
1745187072.7265093,8.911,-0.182,0.124,138.246,-86.38,66.44,0.12689,-0.71539,-0.18167,-0.66257
1745187072.7285054,8.911,-0.182,0.124,136.247,-86.512,68.549,0.12689,-0.71539,-0.18167,-0.66257
1745187072.7289531,9.055,0.172,-0.081,134.83,-86.622,70.049,0.12689,-0.71539,-0.18167,-0.66257
1745187072.7706645,9.055,0.172,-0.081,134.061,-86.715,70.873,0.12689,-0.71539,-0.18167,-0.66257
1745187072.8086648,9.491,-0.464,0.273,133.632,-86.841,71.4,0.12689,-0.71539,-0.18167,-0.66257
1745187072.8096855,9.491,-0.464,0.273,133.577,-87.001,71.592,0.12689,-0.71539,-0.18167,-0.66257
1745187072.8116713,9.816,-1.312,0.34,133.33,-87.155,72.065,0.12689,-0.71539,-0.18167,-0.66257
1745187072.8603618,9.816,-1.312,0.34,132.874,-87.319,72.823,0.1416,-0.69797,-0.17102,-0.68076
1745187072.8623567,9.888,-0.929,-0.651,132.66,-87.418,73.328,0.1416,-0.69797,-0.17102,-0.68076
1745187072.8635368,9.888,-0.929,-0.651,132.742,-87.451,73.51,0.1416,-0.69797,-0.17102,-0.68076
1745187072.8643692,9.874,-1.437,-0.752,133.967,-87.435,72.466,0.1416,-0.69797,-0.17102,-0.68076
1745187072.8653586,9.874,-1.437,-0.752,136.252,-87.358,70.291,0.1416,-0.69797,-0.17102,-0.68076
1745187072.866358,9.845,-1.283,-0.594,137.659,-87.352,69.038,0.1416,-0.69797,-0.17102,-0.68076
1745187072.868358,9.845,-1.283,-0.594,138.29,-87.413,68.61,0.1416,-0.69797,-0.17102,-0.68076
1745187072.8693573,9.438,-1.274,-0.292,137.856,-87.523,69.307,0.1416,-0.69797,-0.17102,-0.68076
1745187072.891058,9.438,-1.274,-0.292,136.154,-87.687,71.323,0.1416,-0.69797,-0.17102,-0.68076
1745187072.9586272,8.787,-1.03,-0.249,133.253,-87.913,74.586,0.1416,-0.69797,-0.17102,-0.68076
1745187072.959627,8.787,-1.03,-0.249,128.436,-88.182,79.816,0.1416,-0.69797,-0.17102,-0.68076
1745187072.961961,9.596,-2.543,0.158,121.849,-88.423,86.836,0.1416,-0.69797,-0.17102,-0.68076
1745187072.9626157,9.596,-2.543,0.158,112.95,-88.632,96.202,0.1416,-0.69797,-0.17102,-0.68076
1745187072.963962,9.06,-1.729,0.369,95.587,-88.764,114.104,0.1416,-0.69797,-0.17102,-0.68076
1745187072.9646156,9.06,-1.729,0.369,71.927,-88.687,138.378,0.1416,-0.69797,-0.17102,-0.68076
1745187072.965615,8.724,-1.025,0.024,56.299,-88.456,154.6,0.1416,-0.69797,-0.17102,-0.68076
1745187072.9666197,8.724,-1.025,0.024,47.521,-88.176,163.954,0.1416,-0.69797,-0.17102,-0.68076
1745187072.9686162,8.964,-0.546,0.278,43.473,-87.962,168.514,0.1416,-0.69797,-0.17102,-0.68076
1745187072.969619,8.964,-0.546,0.278,42.297,-87.825,170.134,0.1416,-0.69797,-0.17102,-0.68076
1745187072.9708445,9.17,-0.752,-0.014,40.265,-87.665,172.716,0.1416,-0.69797,-0.17102,-0.68076
1745187073.0114803,9.17,-0.752,-0.014,37.617,-87.484,176.001,0.1416,-0.69797,-0.17102,-0.68076
1745187073.0484824,8.911,-1.293,0.053,35.206,-87.242,179.0,0.1416,-0.69797,-0.17102,-0.68076
1745187073.0494862,8.911,-1.293,0.053,33.074,-86.946,-178.325,0.1416,-0.69797,-0.17102,-0.68076
1745187073.05049,8.997,-0.397,0.048,30.872,-86.622,-175.54,0.1416,-0.69797,-0.17102,-0.68076
1745187073.0708084,8.997,-0.397,0.048,28.707,-86.27,-172.744,0.20972,-0.65317,-0.21921,-0.6937
1745187073.0718079,8.782,-0.038,-0.632,27.361,-85.957,-170.832,0.20972,-0.65317,-0.21921,-0.6937
1745187073.073808,8.782,-0.038,-0.632,26.614,-85.688,-169.59,0.20972,-0.65317,-0.21921,-0.6937
1745187073.073808,8.394,0.072,0.177,26.526,-85.496,-169.156,0.20972,-0.65317,-0.21921,-0.6937
1745187073.0758073,8.394,0.072,0.177,26.982,-85.38,-169.404,0.20972,-0.65317,-0.21921,-0.6937
1745187073.0758073,8.648,-0.062,0.464,26.351,-85.1,-168.305,0.20972,-0.65317,-0.21921,-0.6937
1745187073.077808,8.648,-0.062,0.464,25.829,-84.814,-167.311,0.20972,-0.65317,-0.21921,-0.6937
1745187073.077808,8.653,-0.101,0.211,25.697,-84.419,-166.608,0.20972,-0.65317,-0.21921,-0.6937
1745187073.1309853,8.653,-0.101,0.211,25.631,-84.023,-165.965,0.20972,-0.65317,-0.21921,-0.6937
1745187073.1769147,8.538,0.809,-0.024,25.28,-83.562,-165.015,0.20972,-0.65317,-0.21921,-0.6937
1745187073.1779125,8.538,0.809,-0.024,25.049,-83.101,-164.185,0.20972,-0.65317,-0.21921,-0.6937
1745187073.1779125,8.576,0.948,0.757,23.912,-82.518,-162.477,0.20972,-0.65317,-0.21921,-0.6937
1745187073.1792283,8.576,0.948,0.757,23.005,-81.931,-160.999,0.20972,-0.65317,-0.21921,-0.6937
1745187073.180234,7.805,1.475,1.772,22.214,-81.409,-159.708,0.20972,-0.65317,-0.21921,-0.6937
1745187073.180234,7.805,1.475,1.772,21.561,-80.876,-158.549,0.20972,-0.65317,-0.21921,-0.6937
1745187073.1812322,7.81,1.556,2.054,21.44,-80.662,-158.016,0.20972,-0.65317,-0.21921,-0.6937
1745187073.1892323,7.81,1.556,2.054,21.352,-80.442,-157.505,0.20972,-0.65317,-0.21921,-0.6937
1745187073.1905036,7.882,1.025,1.915,22.286,-80.508,-158.242,0.20972,-0.65317,-0.21921,-0.6937
1745187073.1915088,7.882,1.025,1.915,23.225,-80.563,-158.978,0.20972,-0.65317,-0.21921,-0.6937
1745187073.1915088,7.336,2.102,1.968,24.055,-80.662,-159.379,0.20972,-0.65317,-0.21921,-0.6937
1745187073.250575,7.336,2.102,1.968,24.911,-80.75,-159.802,0.20972,-0.65317,-0.21921,-0.6937
1745187073.284571,7.398,2.294,1.69,25.318,-80.7,-159.478,0.26794,-0.59393,-0.27264,-0.70779
1745187073.285574,7.398,2.294,1.69,25.746,-80.651,-159.159,0.26794,-0.59393,-0.27264,-0.70779
1745187073.2876496,7.681,2.342,1.676,25.714,-80.563,-158.351,0.26794,-0.59393,-0.27264,-0.70779
1745187073.2885733,7.681,2.342,1.676,25.703,-80.475,-157.566,0.26794,-0.59393,-0.27264,-0.70779
1745187073.289574,8.107,2.107,1.714,25.582,-80.376,-156.819,0.26794,-0.59393,-0.27264,-0.70779
1745187073.29057,8.107,2.107,1.714,25.472,-80.277,-156.083,0.26794,-0.59393,-0.27264,-0.70779
1745187073.291569,8.207,1.786,1.331,25.675,-80.211,-155.808,0.26794,-0.59393,-0.27264,-0.70779
1745187073.3101082,8.207,1.786,1.331,25.878,-80.14,-155.539,0.26794,-0.59393,-0.27264,-0.70779
1745187073.3111072,7.398,1.743,1.609,26.675,-80.123,-155.896,0.26794,-0.59393,-0.27264,-0.70779
1745187073.3121068,7.398,1.743,1.609,27.466,-80.101,-156.242,0.26794,-0.59393,-0.27264,-0.70779
1745187073.3131032,7.843,2.682,2.246,27.966,-80.079,-156.209,0.26794,-0.59393,-0.27264,-0.70779
1745187073.3714812,7.843,2.682,2.246,28.471,-80.052,-156.176,0.26794,-0.59393,-0.27264,-0.70779
1745187073.5884898,8.394,1.939,2.533,28.575,-80.013,-155.72,0.26794,-0.59393,-0.27264,-0.70779
1745187073.620761,8.394,1.939,2.533,28.674,-79.975,-155.264,0.26794,-0.59393,-0.27264,-0.70779
1745187073.6217442,8.332,1.039,2.72,29.125,-79.909,-155.281,0.26794,-0.59393,-0.27264,-0.70779
1745187073.6227543,8.332,1.039,2.72,29.548,-79.838,-155.275,0.26794,-0.59393,-0.27264,-0.70779
1745187073.6237438,7.369,1.911,2.854,29.202,-79.601,-154.38,0.26794,-0.59393,-0.27264,-0.70779
1745187073.624749,7.369,1.911,2.854,28.878,-79.36,-153.506,0.26794,-0.59393,-0.27264,-0.70779
1745187073.62575,8.882,1.829,2.682,28.597,-79.211,-152.688,0.32574,-0.55789,-0.32846,-0.68893
1745187073.6277478,8.882,1.829,2.682,28.323,-79.063,-151.891,0.32574,-0.55789,-0.32846,-0.68893
1745187073.628745,8.935,1.173,2.739,28.839,-79.036,-151.963,0.32574,-0.55789,-0.32846,-0.68893
1745187073.628745,8.935,1.173,2.739,29.339,-79.014,-152.023,0.32574,-0.55789,-0.32846,-0.68893
1745187073.629745,8.701,1.456,2.509,30.366,-79.063,-152.699,0.32574,-0.55789,-0.32846,-0.68893
1745187073.630745,8.701,1.456,2.509,31.388,-79.107,-153.38,0.32574,-0.55789,-0.32846,-0.68893
1745187073.6317453,7.901,1.508,2.796,32.525,-79.222,-154.111,0.32574,-0.55789,-0.32846,-0.68893
1745187073.6327517,7.901,1.508,2.796,33.668,-79.327,-154.858,0.32574,-0.55789,-0.32846,-0.68893
1745187073.6337483,8.95,0.795,2.303,35.041,-79.459,-155.803,0.32574,-0.55789,-0.32846,-0.68893
1745187073.6347504,8.95,0.795,2.303,36.431,-79.59,-156.769,0.32574,-0.55789,-0.32846,-0.68893
1745187073.6347504,8.892,1.417,2.251,37.853,-79.629,-157.857,0.32574,-0.55789,-0.32846,-0.68893
1745187073.635758,8.892,1.417,2.251,39.276,-79.667,-158.945,0.32574,-0.55789,-0.32846,-0.68893
1745187073.636753,8.566,2.361,2.547,39.908,-79.563,-159.126,0.32574,-0.55789,-0.32846,-0.68893
1745187073.6377516,8.566,2.361,2.547,40.534,-79.459,-159.302,0.32574,-0.55789,-0.32846,-0.68893
1745187073.6387446,7.925,3.055,2.255,40.693,-79.327,-158.945,0.32574,-0.55789,-0.32846,-0.68893
1745187073.63975,7.925,3.055,2.255,40.869,-79.195,-158.61,0.32574,-0.55789,-0.32846,-0.68893
1745187073.640749,7.566,3.802,1.475,40.583,-79.118,-157.841,0.32574,-0.55789,-0.32846,-0.68893
1745187073.640749,7.566,3.802,1.475,40.347,-79.041,-157.115,0.32574,-0.55789,-0.32846,-0.68893
1745187073.6417508,8.763,2.883,1.049,40.43,-79.102,-156.808,0.32574,-0.55789,-0.32846,-0.68893
1745187073.6427445,8.763,2.883,1.049,40.534,-79.162,-156.522,0.32574,-0.55789,-0.32846,-0.68893
1745187073.6427445,9.534,2.073,1.346,41.655,-79.354,-157.418,0.32574,-0.55789,-0.32846,-0.68893
1745187073.6437447,9.534,2.073,1.346,42.808,-79.541,-158.351,0.32574,-0.55789,-0.32846,-0.68893
1745187073.6447506,8.973,2.394,1.001,44.039,-79.733,-159.258,0.32574,-0.55789,-0.32846,-0.68893
1745187073.6457484,8.973,2.394,1.001,45.319,-79.926,-160.214,0.32574,-0.55789,-0.32846,-0.68893
1745187073.6467445,9.17,2.069,1.331,46.467,-80.118,-161.043,0.32574,-0.55789,-0.32846,-0.68893
1745187073.7305744,9.17,2.069,1.331,47.648,-80.305,-161.906,0.32574,-0.55789,-0.32846,-0.68893
1745187073.7989128,8.983,2.188,1.8,48.615,-80.431,-162.636,0.32574,-0.55789,-0.32846,-0.68893
1745187073.7999117,8.983,2.188,1.8,49.598,-80.552,-163.378,0.32574,-0.55789,-0.32846,-0.68893
1745187073.8009133,9.883,2.591,1.317,50.663,-80.618,-164.317,0.32574,-0.55789,-0.32846,-0.68893
1745187073.8019094,9.883,2.591,1.317,51.746,-80.684,-165.278,0.32574,-0.55789,-0.32846,-0.68893
1745187073.8029087,9.347,2.346,1.298,52.982,-80.711,-166.465,0.32574,-0.55789,-0.32846,-0.68893
1745187073.8039103,9.347,2.346,1.298,54.223,-80.739,-167.657,0.32574,-0.55789,-0.32846,-0.68893
1745187073.8039103,7.69,2.72,1.647,55.569,-80.799,-168.876,0.32574,-0.55789,-0.32846,-0.68893
1745187073.8049107,7.69,2.72,1.647,56.926,-80.859,-170.101,0.32574,-0.55789,-0.32846,-0.68893
1745187073.8059108,7.791,2.969,1.164,58.881,-81.008,-171.887,0.32574,-0.55789,-0.32846,-0.68893
1745187073.8069108,7.791,2.969,1.164,60.892,-81.145,-173.732,0.32574,-0.55789,-0.32846,-0.68893
1745187073.8079088,8.332,3.347,0.35,63.171,-81.293,-175.952,0.32574,-0.55789,-0.32846,-0.68893
1745187073.851999,8.332,3.347,0.35,65.533,-81.431,-178.259,0.32574,-0.55789,-0.32846,-0.68893
1745187073.888725,8.495,2.83,-0.206,66.506,-81.535,-179.209,0.32574,-0.55789,-0.32846,-0.68893
1745187073.8907285,8.495,2.83,-0.206,67.533,-81.639,179.78,0.32574,-0.55789,-0.32846,-0.68893
1745187073.8917317,8.523,1.748,-0.35,67.28,-81.716,-179.857,0.32574,-0.55789,-0.32846,-0.68893
1745187073.8937247,8.523,1.748,-0.35,67.055,-81.799,-179.522,0.32574,-0.55789,-0.32846,-0.68893
1745187073.8948267,8.878,2.03,0.565,68.406,-81.837,179.033,0.32574,-0.55789,-0.32846,-0.68893
1745187073.8957276,8.878,2.03,0.565,69.758,-81.87,177.589,0.32574,-0.55789,-0.32846,-0.68893
1745187073.8967342,8.988,4.166,1.695,72.592,-81.98,174.512,0.36014,-0.54791,-0.42081,-0.6268
1745187073.8977275,8.988,4.166,1.695,75.46,-82.057,171.409,0.36014,-0.54791,-0.42081,-0.6268
1745187073.8987277,9.242,3.63,1.446,77.772,-82.211,169.091,0.36014,-0.54791,-0.42081,-0.6268
1745187073.8997252,9.242,3.63,1.446,80.151,-82.354,166.712,0.36014,-0.54791,-0.42081,-0.6268
1745187073.9017234,9.002,3.117,1.58,83.633,-82.496,163.114,0.36014,-0.54791,-0.42081,-0.6268
1745187073.941467,9.002,3.117,1.58,87.198,-82.612,159.428,0.36014,-0.54791,-0.42081,-0.6268
1745187073.9425395,10.444,2.682,1.393,91.258,-82.716,155.231,0.36014,-0.54791,-0.42081,-0.6268
1745187073.9443946,10.444,2.682,1.393,95.394,-82.782,150.958,0.36014,-0.54791,-0.42081,-0.6268
1745187073.9453912,12.981,1.384,0.292,99.3,-82.776,146.937,0.36014,-0.54791,-0.42081,-0.6268
1745187073.9713602,12.981,1.384,0.292,103.211,-82.738,142.916,0.36014,-0.54791,-0.42081,-0.6268
1745187074.0398808,27.835,2.902,-1.58,106.353,-82.623,139.631,0.36014,-0.54791,-0.42081,-0.6268
1745187074.0418792,111.34,11.617,-6.321,109.545,-82.502,136.269,0.36014,-0.54791,-0.42081,-0.6268
1745187074.042884,14.006,0.867,-0.795,112.451,-82.343,133.281,0.36014,-0.54791,-0.42081,-0.6268
1745187074.0438795,14.006,0.867,-0.795,115.225,-82.167,130.419,0.36014,-0.54791,-0.42081,-0.6268
1745187074.0458748,13.882,0.622,-0.962,115.944,-82.117,129.694,0.36014,-0.54791,-0.42081,-0.6268
1745187074.0468745,13.882,0.622,-0.962,116.669,-82.068,128.958,0.36014,-0.54791,-0.42081,-0.6268
1745187074.0468745,13.805,1.039,-1.14,116.257,-82.117,129.43,0.36014,-0.54791,-0.42081,-0.6268
1745187074.0598662,13.805,1.039,-1.14,115.867,-82.167,129.886,0.36014,-0.54791,-0.42081,-0.6268
1745187074.0618682,13.23,0.833,-1.025,115.367,-82.172,130.38,0.36014,-0.54791,-0.42081,-0.6268
1745187074.0628686,13.23,0.833,-1.025,114.89,-82.183,130.853,0.36014,-0.54791,-0.42081,-0.6268
1745187074.0638685,11.856,1.796,-0.555,114.626,-82.167,131.089,0.36014,-0.54791,-0.42081,-0.6268
1745187074.1505675,11.856,1.796,-0.555,114.368,-82.145,131.325,0.36014,-0.54791,-0.42081,-0.6268
1745187074.18592,11.372,1.949,-0.891,114.659,-82.123,131.078,0.36014,-0.54791,-0.42081,-0.6268
1745187074.1875823,11.372,1.949,-0.891,114.95,-82.101,130.831,0.36014,-0.54791,-0.42081,-0.6268
1745187074.188565,10.965,1.695,-1.087,115.746,-81.969,129.864,0.33392,-0.58618,-0.43127,-0.59897
1745187074.190567,10.965,1.695,-1.087,116.51,-81.832,128.919,0.33392,-0.58618,-0.43127,-0.59897
1745187074.1915667,10.195,2.203,-0.546,116.521,-81.815,128.743,0.33392,-0.58618,-0.43127,-0.59897
1745187074.1925666,10.195,2.203,-0.546,116.526,-81.793,128.573,0.33392,-0.58618,-0.43127,-0.59897
1745187074.1935637,10.3,1.456,-0.373,116.049,-81.892,129.067,0.33392,-0.58618,-0.43127,-0.59897
1745187074.1945643,10.195,1.465,-0.551,115.593,-81.974,129.523,0.33392,-0.58618,-0.43127,-0.59897
1745187074.1955674,10.195,1.465,-0.551,115.164,-82.04,129.946,0.33392,-0.58618,-0.43127,-0.59897
1745187074.1965685,9.946,1.264,-0.335,114.725,-82.09,130.364,0.33392,-0.58618,-0.43127,-0.59897
1745187074.1975667,9.946,1.264,-0.335,114.28,-82.123,130.77,0.33392,-0.58618,-0.43127,-0.59897
1745187074.2410338,9.481,1.432,0.086,114.011,-82.134,130.99,0.33392,-0.58618,-0.43127,-0.59897
1745187074.2433944,9.481,1.432,0.086,113.912,-82.128,131.034,0.33392,-0.58618,-0.43127,-0.59897
1745187074.2450364,9.117,1.805,0.096,113.725,-82.15,131.193,0.33392,-0.58618,-0.43127,-0.59897
1745187074.2450364,9.117,1.805,0.096,113.45,-82.205,131.479,0.33392,-0.58618,-0.43127,-0.59897
1745187074.247034,9.28,1.772,-0.048,113.181,-82.26,131.754,0.33392,-0.58618,-0.43127,-0.59897
1745187074.2480326,9.28,1.772,-0.048,112.923,-82.321,132.023,0.33392,-0.58618,-0.43127,-0.59897
1745187074.249345,9.237,1.757,0.239,112.764,-82.354,132.138,0.33234,-0.58722,-0.42532,-0.60309
1745187074.2503488,9.237,1.757,0.239,112.709,-82.359,132.1,0.33234,-0.58722,-0.42532,-0.60309
1745187074.3310556,9.17,1.82,0.177,112.747,-82.365,131.962,0.33234,-0.58722,-0.42532,-0.60309
1745187074.400184,9.17,1.82,0.177,112.874,-82.365,131.721,0.33234,-0.58722,-0.42532,-0.60309
1745187074.4011805,9.38,1.575,0.244,113.154,-82.365,131.342,0.33234,-0.58722,-0.42532,-0.60309
1745187074.403181,9.38,1.575,0.244,113.588,-82.359,130.814,0.33234,-0.58722,-0.42532,-0.60309
1745187074.4041805,9.692,1.432,-0.048,113.934,-82.359,130.397,0.33234,-0.58722,-0.42532,-0.60309
1745187074.405198,9.692,1.432,-0.048,114.197,-82.365,130.067,0.33234,-0.58722,-0.42532,-0.60309
1745187074.4061866,9.735,1.168,-0.177,114.483,-82.365,129.727,0.33234,-0.58722,-0.42532,-0.60309
1745187074.40718,9.735,1.168,-0.177,114.791,-82.354,129.364,0.33234,-0.58722,-0.42532,-0.60309
1745187074.4201455,9.668,1.389,-0.129,115.032,-82.348,129.056,0.33234,-0.58722,-0.42532,-0.60309
1745187074.4211338,9.668,1.389,-0.129,115.203,-82.348,128.809,0.33234,-0.58722,-0.42532,-0.60309
1745187074.4221265,9.912,1.02,-0.177,115.285,-82.348,128.65,0.33234,-0.58722,-0.42532,-0.60309
1745187074.4231365,9.912,1.02,-0.177,115.274,-82.354,128.584,0.33234,-0.58722,-0.42532,-0.60309
1745187074.4814744,9.907,1.168,-0.206,115.28,-82.348,128.485,0.33234,-0.58722,-0.42532,-0.60309
1745187074.497799,9.907,1.168,-0.206,115.296,-82.321,128.364,0.33234,-0.58722,-0.42532,-0.60309
1745187074.4987934,9.644,1.398,-0.124,115.219,-82.31,128.364,0.33234,-0.58722,-0.42532,-0.60309
1745187074.4997962,9.644,1.398,-0.124,115.043,-82.321,128.491,0.33234,-0.58722,-0.42532,-0.60309
1745187074.4997962,9.965,1.188,-0.354,114.911,-82.321,128.557,0.33234,-0.58722,-0.42532,-0.60309
1745187074.500795,9.965,1.188,-0.354,114.835,-82.315,128.546,0.33234,-0.58722,-0.42532,-0.60309
1745187074.5014908,9.869,1.178,-0.359,114.73,-82.31,128.562,0.33234,-0.58722,-0.42532,-0.60309
1745187074.5014908,9.869,1.178,-0.359,114.609,-82.31,128.617,0.32294,-0.59491,-0.41705,-0.60641
1745187074.5025973,9.831,1.106,-0.283,114.483,-82.31,128.655,0.32294,-0.59491,-0.41705,-0.60641
1745187074.503598,9.831,1.106,-0.283,114.357,-82.31,128.683,0.32294,-0.59491,-0.41705,-0.60641
1745187074.503598,9.807,1.111,-0.268,114.148,-82.326,128.815,0.32294,-0.59491,-0.41705,-0.60641
1745187074.504597,9.807,1.111,-0.268,113.857,-82.354,129.045,0.32294,-0.59491,-0.41705,-0.60641
