timestamp,AccX,AccY,AccZ,AngX,AngY,AngZ,AsX,AsY,AsZ,Q0,Q1,Q2,Q3
1745851673.5097802,9.697,-0.292,1.298,-4.614,-82.903,-113.571,0.38651,-0.57043,-0.33804,-0.64096
1745851673.5107746,9.816,-0.436,1.618,-4.779,-82.837,-113.362,0.38651,-0.57043,-0.33804,-0.64096
1745851673.5127764,9.816,-0.436,1.618,-4.872,-82.755,-113.198,0.38651,-0.57043,-0.33804,-0.64096
1745851673.5137765,9.821,-0.244,1.58,-4.845,-82.727,-113.225,0.38651,-0.57043,-0.33804,-0.64096
1745851673.5410159,9.821,-0.244,1.58,-4.691,-82.755,-113.434,0.38651,-0.57043,-0.33804,-0.64096
1745851673.542021,9.653,-0.101,1.36,-4.598,-82.798,-113.555,0.38651,-0.57043,-0.33804,-0.64096
1745851673.543018,9.653,-0.101,1.36,-4.504,-82.837,-113.681,0.38651,-0.57043,-0.33804,-0.64096
1745851673.5440137,9.826,-0.057,0.881,-4.444,-82.864,-113.758,0.38651,-0.57043,-0.33804,-0.64096
1745851673.5711303,9.826,-0.057,0.881,-4.378,-82.892,-113.829,0.38651,-0.57043,-0.33804,-0.64096
1745851673.5991051,9.85,-0.148,0.91,-4.362,-82.897,-113.846,0.38651,-0.57043,-0.33804,-0.64096
1745851673.5991051,9.85,-0.148,0.91,-4.34,-82.903,-113.857,0.38763,-0.56982,-0.3371,-0.64133
1745851673.6007438,9.85,-0.168,1.087,-4.147,-82.886,-114.055,0.38763,-0.56982,-0.3371,-0.64133
1745851673.6289966,9.85,-0.168,1.087,-3.95,-82.875,-114.252,0.38763,-0.56982,-0.3371,-0.64133
1745851673.6303782,9.61,0.101,1.082,-3.774,-82.886,-114.461,0.38763,-0.56982,-0.3371,-0.64133
1745851673.6309962,9.61,0.101,1.082,-3.587,-82.892,-114.67,0.38763,-0.56982,-0.3371,-0.64133
1745851673.631999,9.61,0.187,1.202,-3.664,-82.881,-114.604,0.38763,-0.56982,-0.3371,-0.64133
1745851673.6606493,9.61,0.187,1.202,-3.73,-82.875,-114.543,0.38763,-0.56982,-0.3371,-0.64133
1745851673.6606493,9.716,-0.086,1.513,-3.818,-82.875,-114.472,0.38763,-0.56982,-0.3371,-0.64133
1745851673.6606493,9.716,-0.086,1.513,-3.906,-82.875,-114.401,0.38763,-0.56982,-0.3371,-0.64133
1745851673.6606493,9.807,0.034,1.293,-3.999,-82.925,-114.318,0.38763,-0.56982,-0.3371,-0.64133
1745851673.6811535,9.807,0.034,1.293,-4.092,-82.969,-114.23,0.38763,-0.56982,-0.3371,-0.64133
1745851673.7378857,9.984,-0.148,0.972,-4.098,-82.985,-114.23,0.38763,-0.56982,-0.3371,-0.64133
1745851673.7378857,9.984,-0.148,0.972,-4.103,-83.002,-114.23,0.38763,-0.56982,-0.3371,-0.64133
1745851673.7378857,9.855,-0.048,1.044,-4.114,-83.013,-114.241,0.38763,-0.56982,-0.3371,-0.64133
1745851673.7459147,9.855,-0.048,1.044,-4.12,-83.024,-114.252,0.38763,-0.56982,-0.3371,-0.64133
1745851673.7459147,9.802,-0.014,0.991,-4.268,-83.002,-114.109,0.38763,-0.56982,-0.3371,-0.64133
1745851673.7459147,9.802,-0.014,0.991,-4.406,-82.98,-113.967,0.38763,-0.56982,-0.3371,-0.64133
1745851673.7459147,9.802,-0.196,1.192,-4.417,-82.991,-113.994,0.38763,-0.56982,-0.3371,-0.64133
1745851673.7776384,9.802,-0.196,1.192,-4.422,-82.996,-114.022,0.38763,-0.56982,-0.3371,-0.64133
1745851673.7776384,9.778,-0.053,1.159,-4.532,-83.002,-113.923,0.38763,-0.56982,-0.3371,-0.64133
1745851673.7776384,9.778,-0.053,1.159,-4.642,-83.007,-113.824,0.38763,-0.56982,-0.3371,-0.64133
1745851673.7776384,9.922,-0.225,1.24,-4.774,-82.98,-113.681,0.38608,-0.57123,-0.33594,-0.6416
1745851673.8106167,9.922,-0.225,1.24,-4.911,-82.952,-113.538,0.38608,-0.57123,-0.33594,-0.6416
1745851673.8670905,9.811,-0.311,1.379,-4.911,-82.969,-113.571,0.38608,-0.57123,-0.33594,-0.6416
1745851673.86809,9.811,-0.311,1.379,-4.922,-82.985,-113.599,0.38608,-0.57123,-0.33594,-0.6416
1745851673.870087,9.677,-0.22,1.178,-4.949,-83.002,-113.593,0.38608,-0.57123,-0.33594,-0.6416
1745851673.8710902,9.677,-0.22,1.178,-4.982,-83.018,-113.582,0.38608,-0.57123,-0.33594,-0.6416
1745851673.8720906,9.816,-0.321,1.058,-4.993,-83.04,-113.593,0.38608,-0.57123,-0.33594,-0.6416
1745851673.8730876,9.816,-0.321,1.058,-5.01,-83.068,-113.593,0.38608,-0.57123,-0.33594,-0.6416
1745851673.8730876,9.797,-0.326,1.178,-4.867,-83.095,-113.796,0.38608,-0.57123,-0.33594,-0.6416
1745851673.8985991,9.797,-0.326,1.178,-4.73,-83.128,-114.0,0.38608,-0.57123,-0.33594,-0.6416
1745851673.900606,9.701,-0.469,1.36,-4.471,-83.194,-114.373,0.38608,-0.57123,-0.33594,-0.6416
1745851673.9026144,9.701,-0.469,1.36,-4.213,-83.26,-114.741,0.38608,-0.57123,-0.33594,-0.6416
1745851673.9026144,9.591,-0.239,1.111,-3.961,-83.293,-115.071,0.38608,-0.57123,-0.33594,-0.6416
1745851673.9304025,9.591,-0.239,1.111,-3.702,-83.32,-115.395,0.38608,-0.57123,-0.33594,-0.6416
1745851673.9445279,9.634,-0.335,1.082,-3.571,-83.276,-115.527,0.38608,-0.57123,-0.33594,-0.6416
1745851673.9455261,9.634,-0.335,1.082,-3.444,-83.232,-115.659,0.38089,-0.57401,-0.33444,-0.64301
1745851673.9465277,9.792,-0.484,1.279,-3.164,-83.232,-116.01,0.38089,-0.57401,-0.33444,-0.64301
1745851673.9902248,9.792,-0.484,1.279,-2.889,-83.232,-116.351,0.38089,-0.57401,-0.33444,-0.64301
1745851673.9912357,9.85,-0.517,1.283,-2.686,-83.232,-116.603,0.38089,-0.57401,-0.33444,-0.64301
1745851673.993229,9.85,-0.517,1.283,-2.494,-83.227,-116.851,0.38089,-0.57401,-0.33444,-0.64301
1745851673.9942417,9.931,-0.785,1.231,-2.142,-83.199,-117.23,0.38089,-0.57401,-0.33444,-0.64301
1745851674.020388,9.931,-0.785,1.231,-1.813,-83.172,-117.598,0.38089,-0.57401,-0.33444,-0.64301
1745851674.021393,9.692,-0.479,1.279,-1.434,-83.123,-117.96,0.38089,-0.57401,-0.33444,-0.64301
1745851674.0223925,9.692,-0.479,1.279,-1.071,-83.073,-118.312,0.38089,-0.57401,-0.33444,-0.64301
1745851674.0233958,9.553,-0.512,1.432,-0.698,-83.051,-118.674,0.38089,-0.57401,-0.33444,-0.64301
1745851674.0506372,9.553,-0.512,1.432,-0.335,-83.024,-119.031,0.38089,-0.57401,-0.33444,-0.64301
1745851674.1009953,9.476,-0.503,1.24,-0.016,-82.996,-119.35,0.38089,-0.57401,-0.33444,-0.64301
1745851674.1016517,9.476,-0.503,1.24,0.286,-82.974,-119.663,0.38089,-0.57401,-0.33444,-0.64301
1745851674.1026475,9.385,-0.464,1.101,0.483,-82.958,-119.85,0.38089,-0.57401,-0.33444,-0.64301
1745851674.1092477,9.385,-0.464,1.101,0.676,-82.941,-120.037,0.38089,-0.57401,-0.33444,-0.64301
1745851674.1102474,9.074,-0.699,0.905,0.758,-82.941,-120.103,0.37781,-0.57135,-0.33484,-0.647
1745851674.1112492,9.074,-0.699,0.905,0.835,-82.947,-120.163,0.37781,-0.57135,-0.33484,-0.647
1745851674.1112492,8.38,-1.03,0.747,0.731,-82.952,-120.07,0.37781,-0.57135,-0.33484,-0.647
1745851674.1402502,8.38,-1.03,0.747,0.61,-82.958,-119.96,0.37781,-0.57135,-0.33484,-0.647
1745851674.1412542,7.298,-1.235,0.436,0.005,-82.892,-119.29,0.37781,-0.57135,-0.33484,-0.647
1745851674.1422503,7.298,-1.235,0.436,-0.604,-82.831,-118.614,0.37781,-0.57135,-0.33484,-0.647
1745851674.143249,6.622,-2.246,0.579,-1.681,-82.694,-117.444,0.37781,-0.57135,-0.33484,-0.647
1745851674.1703742,6.622,-2.246,0.579,-2.758,-82.562,-116.274,0.37781,-0.57135,-0.33484,-0.647
1745851674.2222428,5.847,-3.256,1.149,-3.845,-82.469,-115.087,0.37781,-0.57135,-0.33484,-0.647
1745851674.2228973,5.847,-3.256,1.149,-4.971,-82.375,-113.868,0.37781,-0.57135,-0.33484,-0.647
1745851674.2228973,6.416,-2.974,1.25,-5.641,-82.518,-113.225,0.37781,-0.57135,-0.33484,-0.647
1745851674.2291336,6.416,-2.974,1.25,-6.389,-82.65,-112.511,0.37781,-0.57135,-0.33484,-0.647
1745851674.2311318,6.225,-2.011,0.838,-7.207,-82.853,-111.824,0.37781,-0.57135,-0.33484,-0.647
1745851674.2311318,6.225,-2.011,0.838,-8.086,-83.051,-111.083,0.37781,-0.57135,-0.33484,-0.647
1745851674.2321332,6.483,-2.045,0.622,-9.838,-83.216,-109.402,0.37781,-0.57135,-0.33484,-0.647
1745851674.2601938,6.483,-2.045,0.622,-11.684,-83.381,-107.622,0.37781,-0.57135,-0.33484,-0.647
1745851674.2621906,6.972,-4.056,1.312,-14.161,-83.331,-105.035,0.37781,-0.57135,-0.33484,-0.647
1745851674.2631986,6.972,-4.056,1.312,-16.644,-83.265,-102.442,0.37781,-0.57135,-0.33484,-0.647
1745851674.2642024,8.092,-5.521,2.078,-18.457,-83.282,-100.486,0.37781,-0.57135,-0.33484,-0.647
1745851674.290404,8.092,-5.521,2.078,-20.33,-83.276,-98.47,0.37781,-0.57135,-0.33484,-0.647
1745851674.3927069,8.528,-4.281,1.762,-21.429,-83.496,-97.284,0.37781,-0.57135,-0.33484,-0.647
1745851674.412674,8.528,-4.281,1.762,-22.615,-83.71,-96.01,0.39139,-0.58273,-0.32816,-0.63202
1745851674.413677,7.949,-4.214,0.359,-23.824,-83.996,-94.724,0.39139,-0.58273,-0.32816,-0.63202
1745851674.4146698,7.949,-4.214,0.359,-25.192,-84.276,-93.285,0.39139,-0.58273,-0.32816,-0.63202
1745851674.4156735,6.977,-4.362,-1.192,-27.065,-84.545,-91.252,0.39139,-0.58273,-0.32816,-0.63202
1745851674.4156735,6.977,-4.362,-1.192,-29.213,-84.814,-88.945,0.39139,-0.58273,-0.32816,-0.63202
1745851674.416669,7.14,-5.626,-2.006,-30.751,-85.034,-87.336,0.39139,-0.58273,-0.32816,-0.63202
1745851674.416669,7.14,-5.626,-2.006,-32.552,-85.243,-85.468,0.39139,-0.58273,-0.32816,-0.63202
1745851674.4176745,6.258,-6.019,-2.203,-32.833,-85.43,-85.182,0.39139,-0.58273,-0.32816,-0.63202
1745851674.418668,6.258,-6.019,-2.203,-33.289,-85.616,-84.727,0.39139,-0.58273,-0.32816,-0.63202
1745851674.418668,5.334,-5.277,-3.194,-32.481,-85.732,-85.38,0.39139,-0.58273,-0.32816,-0.63202
1745851674.4196706,5.334,-5.277,-3.194,-31.789,-85.853,-85.919,0.39139,-0.58273,-0.32816,-0.63202
1745851674.4206688,4.717,-4.348,-3.122,-30.059,-85.803,-87.385,0.39139,-0.58273,-0.32816,-0.63202
1745851674.4206688,4.717,-4.348,-3.122,-28.488,-85.754,-88.698,0.39139,-0.58273,-0.32816,-0.63202
1745851674.421668,2.069,-4.161,-1.882,-28.383,-85.677,-88.451,0.39139,-0.58273,-0.32816,-0.63202
1745851674.4684584,2.069,-4.161,-1.882,-28.405,-85.589,-88.094,0.39139,-0.58273,-0.32816,-0.63202
1745851674.4694579,3.534,-4.774,-2.519,-35.541,-85.836,-80.513,0.39139,-0.58273,-0.32816,-0.63202
1745851674.4704611,3.534,-4.774,-2.519,-43.506,-85.995,-72.114,0.39139,-0.58273,-0.32816,-0.63202
1745851674.4704611,3.869,-6.536,-0.728,-49.059,-85.875,-65.748,0.39139,-0.58273,-0.32816,-0.63202
1745851674.499012,3.869,-6.536,-0.728,-54.168,-85.704,-59.815,0.39139,-0.58273,-0.32816,-0.63202
1745851674.5220094,3.797,-6.45,-1.465,-58.189,-85.474,-54.646,0.39139,-0.58273,-0.32816,-0.63202
1745851674.5220094,3.797,-6.45,-1.465,-61.71,-85.21,-49.982,0.39139,-0.58273,-0.32816,-0.63202
1745851674.5230103,5.167,-6.938,-1.8,-62.715,-85.117,-47.812,0.39139,-0.58273,-0.32816,-0.63202
1745851674.590618,5.167,-6.938,-1.8,-63.638,-85.018,-45.725,0.39139,-0.58273,-0.32816,-0.63202
1745851674.5926197,5.023,-4.334,-3.146,-63.759,-84.985,-44.236,0.39139,-0.58273,-0.32816,-0.63202
1745851674.5936193,5.023,-4.334,-3.146,-63.907,-84.952,-42.731,0.39139,-0.58273,-0.32816,-0.63202
1745851674.5946193,10.779,-3.275,-6.038,-62.633,-84.968,-42.418,0.39139,-0.58273,-0.32816,-0.63202
1745851674.5959778,10.779,-3.275,-6.038,-61.441,-85.012,-42.039,0.39139,-0.58273,-0.32816,-0.63202
1745851674.5966163,27.284,-0.666,-11.277,-62.221,-85.391,-39.633,0.39139,-0.58273,-0.32816,-0.63202
1745851674.5979683,109.147,-2.672,-45.116,-63.452,-85.842,-36.782,0.39139,-0.58273,-0.32816,-0.63202
1745851674.5986164,14.193,4.654,-7.14,-73.444,-86.237,-24.664,0.39139,-0.58273,-0.32816,-0.63202
1745851674.6197891,21.055,3.203,-8.705,-84.765,-86.594,-11.228,0.48422,-0.54337,-0.44202,-0.5242
1745851674.669073,21.055,3.203,-8.705,-97.899,-86.885,4.01,0.48422,-0.54337,-0.44202,-0.5242
1745851674.669073,20.7,8.906,-10.467,-115.016,-87.391,22.978,0.48422,-0.54337,-0.44202,-0.5242
1745851674.6697845,20.7,8.906,-10.467,-144.8,-87.874,54.371,0.48422,-0.54337,-0.44202,-0.5242
1745851674.6707835,14.083,20.815,-9.663,-178.594,-87.539,89.561,0.48422,-0.54337,-0.44202,-0.5242
1745851674.6707835,14.083,20.815,-9.663,160.582,-86.528,111.61,0.48422,-0.54337,-0.44202,-0.5242
1745851674.6717837,16.405,25.915,-10.688,152.287,-85.545,120.932,0.48422,-0.54337,-0.44202,-0.5242
1745851674.6717837,16.405,25.915,-10.688,148.651,-84.792,125.436,0.48422,-0.54337,-0.44202,-0.5242
1745851674.7112472,17.502,22.62,-5.823,147.645,-84.249,127.084,0.48422,-0.54337,-0.44202,-0.5242
1745851674.7122316,17.502,22.62,-5.823,148.502,-83.936,126.612,0.48422,-0.54337,-0.44202,-0.5242
1745851674.7122316,16.012,16.027,-1.384,150.183,-83.82,125.173,0.48422,-0.54337,-0.44202,-0.5242
1745851674.7135878,16.012,16.027,-1.384,152.875,-83.897,122.569,0.48422,-0.54337,-0.44202,-0.5242
1745851674.7396715,17.052,8.662,0.704,156.577,-83.738,118.817,0.48422,-0.54337,-0.44202,-0.5242
1745851674.7704508,17.052,8.662,0.704,160.895,-83.331,114.307,0.48422,-0.54337,-0.44202,-0.5242
1745851674.7714505,14.121,4.75,1.341,164.103,-82.689,110.83,0.48422,-0.54337,-0.44202,-0.5242
1745851674.7724516,14.121,4.75,1.341,166.196,-81.843,108.38,0.48422,-0.54337,-0.44202,-0.5242
1745851674.8011775,14.202,2.433,-0.412,167.173,-81.431,107.106,0.48422,-0.54337,-0.44202,-0.5242
1745851674.802184,14.202,2.433,-0.412,167.393,-81.447,106.633,0.48422,-0.54337,-0.44202,-0.5242
1745851674.8041852,11.88,1.58,-0.421,167.239,-81.403,106.545,0.47034,-0.50739,-0.56131,-0.45404
1745851674.8041852,11.88,1.58,-0.421,166.712,-81.304,106.831,0.47034,-0.50739,-0.56131,-0.45404
1745851674.8302062,11.372,-0.057,-0.718,165.932,-81.26,107.441,0.47034,-0.50739,-0.56131,-0.45404
1745851674.8313653,11.372,-0.057,-0.718,164.916,-81.266,108.364,0.47034,-0.50739,-0.56131,-0.45404
1745851674.833206,9.457,0.622,-1.504,163.334,-81.436,109.924,0.47034,-0.50739,-0.56131,-0.45404
1745851674.8345711,9.457,0.622,-1.504,161.065,-81.755,112.264,0.47034,-0.50739,-0.56131,-0.45404
1745851674.860082,7.638,2.595,-2.71,159.236,-81.793,113.961,0.47034,-0.50739,-0.56131,-0.45404
1745851674.91855,7.638,2.595,-2.71,157.994,-81.562,114.879,0.47034,-0.50739,-0.56131,-0.45404
1745851674.91855,8.064,1.13,-1.638,157.308,-81.442,115.247,0.47034,-0.50739,-0.56131,-0.45404
1745851674.9195526,8.064,1.13,-1.638,157.126,-81.436,115.098,0.47034,-0.50739,-0.56131,-0.45404
1745851674.920558,7.819,0.608,-0.675,156.72,-81.513,115.214,0.47034,-0.50739,-0.56131,-0.45404
1745851674.9215505,7.819,0.608,-0.675,156.066,-81.683,115.609,0.47034,-0.50739,-0.56131,-0.45404
1745851674.9229112,8.557,0.852,-1.298,155.847,-81.788,115.648,0.47034,-0.50739,-0.56131,-0.45404
1745851674.9235501,8.557,0.852,-1.298,156.066,-81.821,115.323,0.47034,-0.50739,-0.56131,-0.45404
1745851674.9495108,9.543,0.618,-1.59,155.649,-81.826,115.598,0.47034,-0.50739,-0.56131,-0.45404
1745851674.9505093,9.543,0.618,-1.59,154.611,-81.804,116.466,0.47034,-0.50739,-0.56131,-0.45404
1745851674.951502,9.208,2.112,-2.327,153.501,-81.672,117.378,0.47034,-0.50739,-0.56131,-0.45404
1745851674.9525023,9.208,2.112,-2.327,152.353,-81.431,118.312,0.47034,-0.50739,-0.56131,-0.45404
1745851674.9806778,10.309,3.05,-2.169,151.243,-81.222,119.191,0.47034,-0.50739,-0.56131,-0.45404
1745851675.0016766,10.309,3.05,-2.169,150.15,-81.046,120.042,0.47034,-0.50739,-0.56131,-0.45404
1745851675.0026798,10.056,5.363,-1.264,148.826,-80.936,121.141,0.44482,-0.51212,-0.5527,-0.48404
1745851675.0036795,10.056,5.363,-1.264,147.222,-80.887,122.547,0.44482,-0.51212,-0.5527,-0.48404
1745851675.0395577,9.361,7.901,-1.417,145.97,-80.892,123.613,0.44482,-0.51212,-0.5527,-0.48404
1745851675.0405679,9.361,7.901,-1.417,145.025,-80.947,124.387,0.44482,-0.51212,-0.5527,-0.48404
1745851675.0405679,11.301,8.997,-0.833,143.871,-80.942,125.31,0.44482,-0.51212,-0.5527,-0.48404
1745851675.0415576,11.301,8.997,-0.833,142.537,-80.87,126.359,0.44482,-0.51212,-0.5527,-0.48404
1745851675.1003606,8.945,15.85,-1.044,140.284,-80.777,128.232,0.44482,-0.51212,-0.5527,-0.48404
1745851675.1519682,8.945,15.85,-1.044,137.093,-80.651,130.974,0.44482,-0.51212,-0.5527,-0.48404
1745851675.1526208,4.592,23.367,-2.816,134.308,-80.634,133.121,0.44482,-0.51212,-0.5527,-0.48404
1745851675.1536198,4.592,23.367,-2.816,131.77,-80.733,134.863,0.44482,-0.51212,-0.5527,-0.48404
1745851675.1546245,6.297,22.812,-5.78,129.688,-80.837,135.923,0.44482,-0.51212,-0.5527,-0.48404
1745851675.1546245,6.297,22.812,-5.78,128.134,-80.958,136.23,0.44482,-0.51212,-0.5527,-0.48404
1745851675.155623,6.124,19.905,-5.713,125.359,-81.211,137.538,0.44482,-0.51212,-0.5527,-0.48404
1745851675.1566248,6.124,19.905,-5.713,121.207,-81.579,140.004,0.44482,-0.51212,-0.5527,-0.48404
1745851675.1596155,5.784,16.022,-4.908,118.141,-81.953,141.273,0.44482,-0.51212,-0.5527,-0.48404
1745851675.1607003,5.784,16.022,-4.908,116.329,-82.354,141.174,0.39883,-0.53638,-0.49344,-0.55646
1745851675.1607003,8.188,12.914,-8.581,113.862,-82.864,141.691,0.39883,-0.53638,-0.49344,-0.55646
1745851675.16162,8.188,12.914,-8.581,110.594,-83.474,142.971,0.39883,-0.53638,-0.49344,-0.55646
1745851675.1893506,7.111,11.023,-10.649,108.182,-83.875,143.201,0.39883,-0.53638,-0.49344,-0.55646
1745851675.190352,7.111,11.023,-10.649,106.93,-84.078,142.081,0.39883,-0.53638,-0.49344,-0.55646
1745851675.191352,8.083,7.547,-14.202,106.452,-84.419,140.229,0.39883,-0.53638,-0.49344,-0.55646
1745851675.191352,8.083,7.547,-14.202,106.99,-84.897,137.417,0.39883,-0.53638,-0.49344,-0.55646
1745851675.2205162,13.522,-3.361,-11.19,104.628,-85.507,137.626,0.39883,-0.53638,-0.49344,-0.55646
1745851675.2686224,13.522,-3.361,-11.19,98.075,-86.232,142.147,0.39883,-0.53638,-0.49344,-0.55646
1745851675.2686224,13.542,-6.354,-9.773,89.709,-86.638,148.629,0.39883,-0.53638,-0.49344,-0.55646
1745851675.2693894,13.542,-6.354,-9.773,80.854,-86.71,155.748,0.39883,-0.53638,-0.49344,-0.55646
1745851675.2784529,8.466,-5.66,-8.255,78.838,-86.671,156.242,0.39883,-0.53638,-0.49344,-0.55646
1745851675.2784529,8.466,-5.66,-8.255,84.803,-86.776,148.31,0.39883,-0.53638,-0.49344,-0.55646
1745851675.2784529,8.322,-7.968,-9.716,86.232,-87.204,144.459,0.39883,-0.53638,-0.49344,-0.55646
1745851675.2784529,8.322,-7.968,-9.716,78.761,-87.737,149.749,0.39883,-0.53638,-0.49344,-0.55646
1745851675.3114007,12.086,-12.397,-8.753,70.735,-88.116,155.522,0.39883,-0.53638,-0.49344,-0.55646
1745851675.3123753,12.086,-12.397,-8.753,63.199,-88.358,160.757,0.39883,-0.53638,-0.49344,-0.55646
1745851675.313376,9.625,-13.135,-4.348,57.442,-88.5,164.454,0.39883,-0.53638,-0.49344,-0.55646
1745851675.3143735,9.625,-13.135,-4.348,54.673,-88.572,165.416,0.24231,-0.65494,-0.25281,-0.66956
1745851675.34053,11.013,-13.925,-2.892,58.942,-88.577,159.576,0.24231,-0.65494,-0.25281,-0.66956
1745851675.3795712,11.013,-13.925,-2.892,69.28,-88.473,147.914,0.24231,-0.65494,-0.25281,-0.66956
1745851675.3795712,7.446,-9.831,-2.83,80.184,-88.297,135.824,0.24231,-0.65494,-0.25281,-0.66956
1745851675.3795712,7.446,-9.831,-2.83,90.577,-88.033,124.382,0.24231,-0.65494,-0.25281,-0.66956
1745851675.394965,6.302,-6.737,-4.492,99.608,-87.852,114.467,0.24231,-0.65494,-0.25281,-0.66956
1745851675.394965,6.302,-6.737,-4.492,108.99,-87.742,104.359,0.24231,-0.65494,-0.25281,-0.66956
1745851675.394965,8.356,-6.972,-6.239,116.774,-87.665,95.878,0.24231,-0.65494,-0.25281,-0.66956
1745851675.394965,8.356,-6.972,-6.239,123.651,-87.632,88.33,0.24231,-0.65494,-0.25281,-0.66956
1745851675.4300683,7.475,-4.156,-6.464,133.215,-87.627,77.937,0.24231,-0.65494,-0.25281,-0.66956
1745851675.4317179,7.475,-4.156,-6.464,145.651,-87.589,64.517,0.24231,-0.65494,-0.25281,-0.66956
1745851675.4327173,8.14,-4.865,-3.903,160.659,-87.589,48.538,0.24231,-0.65494,-0.25281,-0.66956
1745851675.4337454,8.14,-4.865,-3.903,179.105,-87.528,29.141,0.24231,-0.65494,-0.25281,-0.66956
1745851675.4606109,9.625,-7.197,-0.019,-163.971,-87.281,11.376,0.24231,-0.65494,-0.25281,-0.66956
1745851675.4856043,9.625,-7.197,-0.019,-149.722,-86.885,-3.587,0.24231,-0.65494,-0.25281,-0.66956
1745851675.486603,9.998,-6.752,1.652,-141.251,-86.358,-12.601,0.24231,-0.65494,-0.25281,-0.66956
1745851675.4876037,9.998,-6.752,1.652,-136.719,-85.809,-17.496,0.24231,-0.65494,-0.25281,-0.66956
1745851675.520377,10.084,-5.061,0.206,-133.638,-85.314,-20.88,0.24231,-0.65494,-0.25281,-0.66956
1745851675.5223777,10.084,-5.061,0.206,-131.495,-84.886,-23.258,0.17227,-0.71402,-0.13779,-0.6644
1745851675.5233753,10.918,-4.405,-1.437,-129.386,-84.534,-25.565,0.17227,-0.71402,-0.13779,-0.6644
1745851675.5233753,10.918,-4.405,-1.437,-127.238,-84.254,-27.856,0.17227,-0.71402,-0.13779,-0.6644
1745851675.5503247,11.847,-5.234,-0.857,-125.074,-84.045,-30.135,0.17227,-0.71402,-0.13779,-0.6644
1745851675.551317,11.847,-5.234,-0.857,-122.816,-83.892,-32.481,0.17227,-0.71402,-0.13779,-0.6644
1745851675.5523176,10.405,-3.845,0.967,-121.893,-83.837,-33.437,0.17227,-0.71402,-0.13779,-0.6644
1745851675.5533173,10.405,-3.845,0.967,-122.212,-83.886,-33.107,0.17227,-0.71402,-0.13779,-0.6644
1745851675.5803795,9.294,-0.838,0.172,-124.266,-83.908,-30.97,0.17227,-0.71402,-0.13779,-0.6644
1745851675.6283848,9.294,-0.838,0.172,-128.073,-83.886,-27.015,0.17227,-0.71402,-0.13779,-0.6644
1745851675.6293828,7.992,1.891,-2.509,-131.984,-83.787,-22.994,0.17227,-0.71402,-0.13779,-0.6644
1745851675.6303842,3.994,0.943,-1.255,-135.917,-83.611,-18.995,0.17227,-0.71402,-0.13779,-0.6644
1745851675.6396265,8.432,1.561,-2.332,-138.708,-83.425,-16.199,0.17227,-0.71402,-0.13779,-0.6644
1745851675.6406271,8.432,1.561,-2.332,-140.504,-83.249,-14.458,0.17227,-0.71402,-0.13779,-0.6644
1745851675.6406271,8.016,0.565,0.12,-141.202,-83.145,-13.76,0.17227,-0.71402,-0.13779,-0.6644
1745851675.6416302,8.016,0.565,0.12,-140.828,-83.123,-14.062,0.17227,-0.71402,-0.13779,-0.6644
1745851675.7004566,8.672,0.828,-0.819,-141.559,-83.002,-13.228,0.17227,-0.71402,-0.13779,-0.6644
1745851675.7316263,8.672,0.828,-0.819,-143.317,-82.776,-11.343,0.17227,-0.71402,-0.13779,-0.6644
1745851675.7325997,9.084,0.867,-1.451,-144.591,-82.612,-9.97,0.17227,-0.71402,-0.13779,-0.6644
1745851675.7336018,9.084,0.867,-1.451,-145.464,-82.507,-9.047,0.17282,-0.73071,-0.13809,-0.64578
1745851675.734593,8.897,1.154,-1.815,-146.475,-82.392,-8.026,0.17282,-0.73071,-0.13809,-0.64578
1745851675.7355928,8.897,1.154,-1.815,-147.623,-82.271,-6.916,0.17282,-0.73071,-0.13809,-0.64578
1745851675.7365923,9.012,1.307,-1.796,-147.568,-82.183,-7.026,0.17282,-0.73071,-0.13809,-0.64578
1745851675.7375934,9.012,1.307,-1.796,-147.563,-82.101,-7.086,0.17282,-0.73071,-0.13809,-0.64578
1745851675.7608624,9.888,0.259,-0.943,-146.981,-82.051,-7.657,0.17282,-0.73071,-0.13809,-0.64578
1745851675.7608624,9.888,0.259,-0.943,-146.415,-82.002,-8.212,0.17282,-0.73071,-0.13809,-0.64578
1745851675.7618597,10.032,0.8,-0.934,-147.206,-81.843,-7.416,0.17282,-0.73071,-0.13809,-0.64578
1745851675.7628584,10.032,0.8,-0.934,-147.975,-81.689,-6.641,0.17282,-0.73071,-0.13809,-0.64578
1745851675.791295,10.118,0.69,-1.365,-147.914,-81.59,-6.641,0.17282,-0.73071,-0.13809,-0.64578
1745851675.7931406,10.118,0.69,-1.365,-147.87,-81.497,-6.63,0.17282,-0.73071,-0.13809,-0.64578
1745851675.7947574,10.262,0.498,-1.513,-148.661,-81.315,-5.751,0.17282,-0.73071,-0.13809,-0.64578
1745851675.7947574,10.262,0.498,-1.513,-149.425,-81.129,-4.9,0.1731,-0.73831,-0.13904,-0.63678
1745851675.812736,10.453,0.335,-1.614,-149.727,-81.008,-4.548,0.1731,-0.73831,-0.13904,-0.63678
1745851675.8604236,10.453,0.335,-1.614,-150.018,-80.887,-4.197,0.1731,-0.73831,-0.13904,-0.63678
1745851675.8657682,10.233,0.201,-1.298,-150.359,-80.826,-3.84,0.1731,-0.73831,-0.13904,-0.63678
1745851675.8657682,10.233,0.201,-1.298,-150.688,-80.766,-3.483,0.1731,-0.73831,-0.13904,-0.63678
