timestamp,AccX,AccY,AccZ,AngX,AngY,AngZ,AsX,AsY,AsZ,Q0,Q1,Q2,Q3
1745607601.5366318,5.061,2.533,7.992,16.232,-35.75,-160.768,0.19208,-0.27942,-0.18256,-0.92282
1745607601.5668366,5.061,2.533,7.992,16.166,-35.728,-160.565,0.19208,-0.27942,-0.18256,-0.92282
1745607601.5678296,4.98,2.447,8.131,16.106,-35.706,-160.362,0.19208,-0.27942,-0.18256,-0.92282
1745607601.5688343,4.98,2.447,8.131,16.04,-35.695,-160.159,0.19208,-0.27942,-0.18256,-0.92282
1745607601.5708337,4.827,2.61,8.102,15.98,-35.689,-159.966,0.19208,-0.27942,-0.18256,-0.92282
1745607601.5718303,4.827,2.61,8.102,15.919,-35.7,-159.774,0.19208,-0.27942,-0.18256,-0.92282
1745607601.5728436,4.985,2.614,8.083,15.859,-35.722,-159.587,0.19208,-0.27942,-0.18256,-0.92282
1745607601.5738356,4.985,2.614,8.083,15.787,-35.755,-159.401,0.19208,-0.27942,-0.18256,-0.92282
1745607601.5748467,5.148,2.466,8.131,15.721,-35.777,-159.214,0.19208,-0.27942,-0.18256,-0.92282
1745607601.5758362,5.148,2.466,8.131,15.65,-35.788,-159.016,0.19208,-0.27942,-0.18256,-0.92282
1745607601.5768337,5.061,2.634,8.03,15.573,-35.793,-158.813,0.19208,-0.27942,-0.18256,-0.92282
1745607601.5778348,5.061,2.634,8.03,15.496,-35.793,-158.599,0.19208,-0.27942,-0.18256,-0.92282
1745607601.5778348,5.057,2.557,8.126,15.419,-35.793,-158.395,0.19208,-0.27942,-0.18256,-0.92282
1745607601.5788462,5.057,2.557,8.126,15.342,-35.799,-158.198,0.19208,-0.27942,-0.18256,-0.92282
1745607601.5798414,5.028,2.567,8.207,15.271,-35.81,-158.005,0.19208,-0.27942,-0.18256,-0.92282
1745607601.5808394,5.028,2.567,8.207,15.194,-35.832,-157.813,0.19208,-0.27942,-0.18256,-0.92282
1745607601.5942667,5.167,2.523,8.174,15.128,-35.859,-157.632,0.22134,-0.27502,-0.18213,-0.91766
1745607601.5956056,5.167,2.523,8.174,15.062,-35.892,-157.462,0.22134,-0.27502,-0.18213,-0.91766
1745607601.596263,5.162,2.543,8.092,15.002,-35.925,-157.291,0.22134,-0.27502,-0.18213,-0.91766
1745607601.5972733,5.162,2.543,8.092,14.952,-35.964,-157.132,0.22134,-0.27502,-0.18213,-0.91766
1745607601.6256878,5.157,2.466,8.083,14.914,-35.997,-156.973,0.22134,-0.27502,-0.18213,-0.91766
1745607601.6256878,5.157,2.466,8.083,14.881,-36.024,-156.813,0.22134,-0.27502,-0.18213,-0.91766
1745607601.626693,5.229,2.466,8.126,14.843,-36.046,-156.66,0.22134,-0.27502,-0.18213,-0.91766
1745607601.6277032,5.229,2.466,8.126,14.804,-36.063,-156.5,0.22134,-0.27502,-0.18213,-0.91766
1745607601.6856399,5.306,2.418,8.236,14.766,-36.068,-156.346,0.22134,-0.27502,-0.18213,-0.91766
1745607601.7366445,5.306,2.418,8.236,14.727,-36.074,-156.193,0.22134,-0.27502,-0.18213,-0.91766
1745607601.7376409,5.253,2.543,8.159,14.689,-36.079,-156.044,0.22134,-0.27502,-0.18213,-0.91766
1745607601.7386441,5.253,2.543,8.159,14.656,-36.085,-155.901,0.22134,-0.27502,-0.18213,-0.91766
1745607601.7396438,5.229,2.442,8.26,14.628,-36.09,-155.759,0.22134,-0.27502,-0.18213,-0.91766
1745607601.7406402,5.229,2.442,8.26,14.601,-36.09,-155.621,0.22134,-0.27502,-0.18213,-0.91766
1745607601.742644,5.258,2.476,8.317,14.579,-36.101,-155.49,0.22134,-0.27502,-0.18213,-0.91766
1745607601.7436464,5.258,2.476,8.317,14.562,-36.123,-155.363,0.22134,-0.27502,-0.18213,-0.91766
1745607601.805276,5.373,2.547,8.274,14.54,-36.145,-155.242,0.22134,-0.27502,-0.18213,-0.91766
1745607601.8321173,5.373,2.547,8.274,14.524,-36.178,-155.132,0.22134,-0.27502,-0.18213,-0.91766
1745607601.832758,5.392,2.547,8.26,14.507,-36.205,-155.023,0.22134,-0.27502,-0.18213,-0.91766
1745607601.8337595,5.392,2.547,8.26,14.491,-36.233,-154.918,0.22134,-0.27502,-0.18213,-0.91766
1745607601.8357675,5.54,2.648,8.337,14.474,-36.249,-154.819,0.22134,-0.27502,-0.18213,-0.91766
1745607601.8357675,5.54,2.648,8.337,14.458,-36.266,-154.715,0.22134,-0.27502,-0.18213,-0.91766
1745607601.8367658,5.598,2.705,8.509,14.447,-36.277,-154.627,0.22134,-0.27502,-0.18213,-0.91766
1745607601.837761,5.598,2.705,8.509,14.442,-36.288,-154.539,0.22134,-0.27502,-0.18213,-0.91766
1745607601.839764,5.622,2.72,8.653,14.442,-36.31,-154.473,0.22134,-0.27502,-0.18213,-0.91766
1745607601.8407588,5.622,2.72,8.653,14.447,-36.332,-154.407,0.22134,-0.27502,-0.18213,-0.91766
1745607601.8417633,5.784,2.658,8.782,14.48,-36.359,-154.38,0.22134,-0.27502,-0.18213,-0.91766
1745607601.8427653,5.784,2.658,8.782,14.513,-36.381,-154.347,0.24728,-0.27524,-0.18539,-0.91028
1745607601.865071,5.77,2.682,8.696,14.59,-36.42,-154.352,0.24728,-0.27524,-0.18539,-0.91028
1745607601.8670726,5.77,2.682,8.696,14.661,-36.458,-154.363,0.24728,-0.27524,-0.18539,-0.91028
1745607601.868069,5.909,2.629,8.38,14.777,-36.48,-154.396,0.24728,-0.27524,-0.18539,-0.91028
1745607601.8690698,5.909,2.629,8.38,14.886,-36.508,-154.429,0.24728,-0.27524,-0.18539,-0.91028
1745607601.9257247,5.88,2.442,8.226,15.024,-36.453,-154.462,0.24728,-0.27524,-0.18539,-0.91028
1745607602.0503726,5.88,2.442,8.226,15.161,-36.403,-154.49,0.24728,-0.27524,-0.18539,-0.91028
1745607602.0513666,5.55,2.274,8.049,15.315,-36.255,-154.484,0.24728,-0.27524,-0.18539,-0.91028
1745607602.0523705,5.55,2.274,8.049,15.469,-36.118,-154.479,0.24728,-0.27524,-0.18539,-0.91028
1745607602.0523705,5.191,2.188,7.724,15.639,-35.942,-154.462,0.24728,-0.27524,-0.18539,-0.91028
1745607602.053374,5.191,2.188,7.724,15.804,-35.766,-154.446,0.24728,-0.27524,-0.18539,-0.91028
1745607602.0543745,4.808,2.236,7.681,15.963,-35.607,-154.424,0.24728,-0.27524,-0.18539,-0.91028
1745607602.0543745,4.808,2.236,7.681,16.122,-35.447,-154.407,0.24728,-0.27524,-0.18539,-0.91028
1745607602.0553665,4.515,2.385,7.604,16.276,-35.354,-154.391,0.24728,-0.27524,-0.18539,-0.91028
1745607602.0553665,4.515,2.385,7.604,16.43,-35.255,-154.38,0.24728,-0.27524,-0.18539,-0.91028
1745607602.056368,4.41,2.365,7.556,16.567,-35.217,-154.374,0.24728,-0.27524,-0.18539,-0.91028
1745607602.0573676,4.41,2.365,7.556,16.705,-35.178,-154.374,0.24728,-0.27524,-0.18539,-0.91028
1745607602.0573676,4.41,2.289,7.47,16.831,-35.167,-154.352,0.24728,-0.27524,-0.18539,-0.91028
1745607602.0583646,4.41,2.289,7.47,16.952,-35.156,-154.33,0.24728,-0.27524,-0.18539,-0.91028
1745607602.0583646,4.482,2.557,7.417,17.045,-35.14,-154.27,0.24728,-0.27524,-0.18539,-0.91028
1745607602.05937,4.482,2.557,7.417,17.144,-35.123,-154.215,0.24728,-0.27524,-0.18539,-0.91028
1745607602.0747578,4.381,2.734,7.561,17.205,-35.134,-154.127,0.24728,-0.27524,-0.18539,-0.91028
1745607602.0757551,4.381,2.734,7.561,17.265,-35.14,-154.039,0.24728,-0.27524,-0.18539,-0.91028
1745607602.0757551,4.396,2.911,7.58,17.292,-35.195,-153.94,0.24728,-0.27524,-0.18539,-0.91028
1745607602.0767584,4.396,2.911,7.58,17.325,-35.25,-153.842,0.24728,-0.27524,-0.18539,-0.91028
1745607602.1359212,4.635,2.873,7.609,17.331,-35.338,-153.732,0.24728,-0.27524,-0.18539,-0.91028
1745607602.1369243,4.635,2.873,7.609,17.336,-35.425,-153.627,0.259,-0.25986,-0.20819,-0.90662
1745607602.1379216,4.961,2.887,7.609,17.314,-35.513,-153.484,0.259,-0.25986,-0.20819,-0.90662
1745607602.1389227,4.961,2.887,7.609,17.298,-35.596,-153.347,0.259,-0.25986,-0.20819,-0.90662
1745607602.164919,5.066,2.94,7.681,17.249,-35.656,-153.177,0.259,-0.25986,-0.20819,-0.90662
1745607602.526918,5.066,2.94,7.681,17.205,-35.717,-153.007,0.259,-0.25986,-0.20819,-0.90662
1745607602.526918,4.942,3.17,7.685,17.15,-35.793,-152.831,0.259,-0.25986,-0.20819,-0.90662
1745607602.5279279,4.942,3.17,7.685,17.1,-35.865,-152.655,0.259,-0.25986,-0.20819,-0.90662
1745607602.5279279,4.999,3.385,7.762,17.034,-35.991,-152.507,0.259,-0.25986,-0.20819,-0.90662
1745607602.528932,4.999,3.385,7.762,16.968,-36.118,-152.353,0.259,-0.25986,-0.20819,-0.90662
1745607602.528932,5.306,3.146,7.915,16.897,-36.266,-152.21,0.259,-0.25986,-0.20819,-0.90662
1745607602.528932,5.306,3.146,7.915,16.831,-36.414,-152.073,0.259,-0.25986,-0.20819,-0.90662
1745607602.5299263,5.373,3.065,7.887,16.76,-36.541,-151.919,0.259,-0.25986,-0.20819,-0.90662
1745607602.5299263,5.373,3.065,7.887,16.688,-36.667,-151.771,0.259,-0.25986,-0.20819,-0.90662
1745607602.5309274,5.411,2.931,7.776,16.628,-36.766,-151.611,0.259,-0.25986,-0.20819,-0.90662
1745607602.531923,5.411,2.931,7.776,16.562,-36.865,-151.452,0.259,-0.25986,-0.20819,-0.90662
1745607602.531923,5.363,2.931,7.743,16.518,-36.958,-151.304,0.259,-0.25986,-0.20819,-0.90662
1745607602.5329201,5.363,2.931,7.743,16.469,-37.051,-151.155,0.259,-0.25986,-0.20819,-0.90662
1745607602.5329201,5.286,2.792,7.772,16.447,-37.172,-151.029,0.259,-0.25986,-0.20819,-0.90662
1745607602.5339258,5.286,2.792,7.772,16.425,-37.293,-150.903,0.259,-0.25986,-0.20819,-0.90662
1745607602.5349216,5.224,2.662,7.331,16.425,-37.452,-150.804,0.259,-0.25986,-0.20819,-0.90662
1745607602.5359328,5.224,2.662,7.331,16.419,-37.612,-150.699,0.259,-0.25986,-0.20819,-0.90662
1745607602.5359328,5.114,2.533,6.79,16.441,-37.82,-150.628,0.259,-0.25986,-0.20819,-0.90662
1745607602.5359328,5.114,2.533,6.79,16.463,-38.024,-150.557,0.259,-0.25986,-0.20819,-0.90662
1745607602.536925,4.798,2.356,6.153,16.507,-38.287,-150.507,0.259,-0.25986,-0.20819,-0.90662
1745607602.536925,4.798,2.356,6.153,16.551,-38.557,-150.463,0.259,-0.25986,-0.20819,-0.90662
1745607602.5379229,4.602,2.16,5.928,16.589,-38.897,-150.436,0.259,-0.25986,-0.20819,-0.90662
1745607602.5379229,4.602,2.16,5.928,16.633,-39.238,-150.408,0.259,-0.25986,-0.20819,-0.90662
1745607602.538929,4.975,1.796,5.928,16.672,-39.622,-150.392,0.259,-0.25986,-0.20819,-0.90662
1745607602.5399196,4.975,1.796,5.928,16.71,-40.007,-150.37,0.259,-0.25986,-0.20819,-0.90662
1745607602.5399196,4.841,2.093,5.765,16.749,-40.424,-150.337,0.259,-0.25986,-0.20819,-0.90662
1745607602.5399196,4.841,2.093,5.765,16.782,-40.836,-150.309,0.259,-0.25986,-0.20819,-0.90662
1745607602.540925,4.87,2.203,5.732,16.804,-41.314,-150.276,0.259,-0.25986,-0.20819,-0.90662
1745607602.540925,4.87,2.203,5.732,16.82,-41.786,-150.244,0.259,-0.25986,-0.20819,-0.90662
1745607602.5419257,4.803,2.025,5.483,16.804,-42.336,-150.183,0.259,-0.25986,-0.20819,-0.90662
1745607602.5419257,4.803,2.025,5.483,16.793,-42.885,-150.123,0.259,-0.25986,-0.20819,-0.90662
1745607602.5429275,5.229,1.69,6.211,16.71,-43.484,-150.013,0.259,-0.25986,-0.20819,-0.90662
1745607602.5439317,5.229,1.69,6.211,16.622,-44.083,-149.903,0.259,-0.25986,-0.20819,-0.90662
1745607602.5439317,5.78,1.551,6.369,16.474,-44.692,-149.7,0.259,-0.25986,-0.20819,-0.90662
1745607602.5439317,5.78,1.551,6.369,16.32,-45.297,-149.496,0.259,-0.25986,-0.20819,-0.90662
1745607602.5449235,5.55,1.288,5.923,16.117,-45.906,-149.183,0.259,-0.25986,-0.20819,-0.90662
1745607602.5449235,5.55,1.288,5.923,15.908,-46.516,-148.859,0.259,-0.25986,-0.20819,-0.90662
1745607602.5459242,5.583,1.178,5.574,15.639,-47.181,-148.453,0.259,-0.25986,-0.20819,-0.90662
1745607602.5459242,5.583,1.178,5.574,15.353,-47.84,-148.035,0.259,-0.25986,-0.20819,-0.90662
1745607602.5546355,5.952,1.053,5.516,14.941,-48.538,-147.469,0.259,-0.25986,-0.20819,-0.90662
1745607602.5556345,5.952,1.053,5.516,14.518,-49.23,-146.887,0.259,-0.25986,-0.20819,-0.90662
1745607602.5556345,6.139,0.086,5.578,13.936,-49.905,-146.107,0.259,-0.25986,-0.20819,-0.90662
1745607602.5566342,6.139,0.086,5.578,13.326,-50.581,-145.305,0.259,-0.25986,-0.20819,-0.90662
1745607602.6155381,6.129,-0.283,5.55,12.585,-51.279,-144.322,0.259,-0.25986,-0.20819,-0.90662
1745607602.6165535,6.129,-0.283,5.55,11.81,-51.971,-143.311,0.3219,-0.38187,-0.22537,-0.83646
1745607602.6175494,6.732,-0.148,5.349,10.865,-52.668,-142.097,0.3219,-0.38187,-0.22537,-0.83646
1745607602.6175494,6.732,-0.148,5.349,9.877,-53.35,-140.845,0.3219,-0.38187,-0.22537,-0.83646
1745607602.645152,6.79,-0.498,5.401,8.657,-53.987,-139.323,0.3219,-0.38187,-0.22537,-0.83646
1745607602.699351,6.79,-0.498,5.401,7.388,-54.602,-137.758,0.3219,-0.38187,-0.22537,-0.83646
1745607602.699351,7.116,-0.522,5.569,5.839,-55.102,-135.884,0.3219,-0.38187,-0.22537,-0.83646
1745607602.7013505,7.116,-0.522,5.569,4.246,-55.574,-133.973,0.3219,-0.38187,-0.22537,-0.83646
1745607602.7013505,7.532,-1.614,6.235,2.395,-55.898,-131.748,0.3219,-0.38187,-0.22537,-0.83646
1745607602.7023551,7.532,-1.614,6.235,0.505,-56.184,-129.49,0.3219,-0.38187,-0.22537,-0.83646
1745607602.7033498,7.968,-3.371,6.512,-1.461,-56.398,-127.084,0.3219,-0.38187,-0.22537,-0.83646
1745607602.7043548,7.968,-3.371,6.512,-3.461,-56.574,-124.656,0.3219,-0.38187,-0.22537,-0.83646
1745607602.7345283,8.428,-3.376,6.34,-5.471,-56.591,-122.124,0.3219,-0.38187,-0.22537,-0.83646
1745607602.7355287,8.428,-3.376,6.34,-7.487,-56.563,-119.592,0.3219,-0.38187,-0.22537,-0.83646
1745607602.7355287,8.653,-3.567,6.316,-9.553,-56.354,-116.917,0.3219,-0.38187,-0.22537,-0.83646
1745607602.736531,8.653,-3.567,6.316,-11.591,-56.091,-114.28,0.3219,-0.38187,-0.22537,-0.83646
1745607602.7656622,8.978,-4.219,7.207,-13.727,-55.591,-111.517,0.3219,-0.38187,-0.22537,-0.83646
1745607602.793673,8.978,-4.219,7.207,-15.793,-55.031,-108.831,0.3219,-0.38187,-0.22537,-0.83646
1745607602.7946603,9.112,-4.927,8.672,-17.864,-54.278,-106.095,0.3219,-0.38187,-0.22537,-0.83646
1745607602.7956603,9.112,-4.927,8.672,-19.836,-53.47,-103.464,0.4718,-0.44318,-0.16046,-0.74509
1745607602.7966592,9.476,-6.239,8.662,-21.627,-52.449,-100.898,0.4718,-0.44318,-0.16046,-0.74509
1745607602.7976687,9.476,-6.239,8.662,-23.302,-51.378,-98.443,0.4718,-0.44318,-0.16046,-0.74509
1745607602.7986763,9.553,-6.828,8.169,-24.763,-50.18,-96.108,0.4718,-0.44318,-0.16046,-0.74509
1745607602.7996569,9.553,-6.828,8.169,-26.115,-48.955,-93.884,0.4718,-0.44318,-0.16046,-0.74509
1745607602.8556883,9.764,-6.694,9.06,-27.438,-47.648,-91.692,0.4718,-0.44318,-0.16046,-0.74509
1745607602.8563364,9.764,-6.694,9.06,-28.658,-46.313,-89.604,0.4718,-0.44318,-0.16046,-0.74509
1745607602.858337,9.385,-7.336,10.094,-29.833,-44.786,-87.589,0.4718,-0.44318,-0.16046,-0.74509
1745607602.858337,9.385,-7.336,10.094,-30.899,-43.237,-85.671,0.4718,-0.44318,-0.16046,-0.74509
1745607602.8848608,9.318,-7.954,10.415,-31.8,-41.375,-83.925,0.4718,-0.44318,-0.16046,-0.74509
1745607602.9289222,9.318,-7.954,10.415,-32.596,-39.501,-82.271,0.4718,-0.44318,-0.16046,-0.74509
1745607602.9289222,8.911,-8.317,10.458,-33.195,-37.222,-80.821,0.4718,-0.44318,-0.16046,-0.74509
1745607602.9299116,8.116,-8.48,11.104,-33.728,-34.865,-79.431,0.4718,-0.44318,-0.16046,-0.74509
1745607602.9299116,8.116,-8.48,11.104,-34.189,-32.432,-78.096,0.4718,-0.44318,-0.16046,-0.74509
1745607602.9309225,7.269,-8.581,11.607,-34.667,-30.053,-76.75,0.4718,-0.44318,-0.16046,-0.74509
1745607602.9319258,7.269,-8.581,11.607,-35.151,-27.729,-75.394,0.4718,-0.44318,-0.16046,-0.74509
1745607602.9319258,7.082,-9.146,12.105,-35.612,-25.395,-74.064,0.4718,-0.44318,-0.16046,-0.74509
1745607602.975343,7.082,-9.146,12.105,-36.057,-23.055,-72.762,0.4718,-0.44318,-0.16046,-0.74509
1745607602.9763412,6.302,-9.744,12.522,-36.409,-20.555,-71.559,0.4718,-0.44318,-0.16046,-0.74509
1745607602.9773395,6.302,-9.744,12.522,-36.672,-17.908,-70.444,0.4718,-0.44318,-0.16046,-0.74509
1745607602.9773395,4.721,-9.673,12.89,-36.837,-15.024,-69.45,0.4718,-0.44318,-0.16046,-0.74509
1745607603.0044487,4.721,-9.673,12.89,-36.903,-11.904,-68.56,0.74951,-0.32809,0.07648,-0.56976
1745607603.0544455,3.5,-9.639,12.977,-36.887,-8.586,-67.753,0.74951,-0.32809,0.07648,-0.56976
1745607603.0554495,3.5,-9.639,12.977,-36.793,-5.076,-67.017,0.74951,-0.32809,0.07648,-0.56976
1745607603.0564508,2.294,-9.323,12.632,-36.667,-1.368,-66.385,0.74951,-0.32809,0.07648,-0.56976
1745607603.0574498,2.294,-9.323,12.632,-36.508,2.538,-65.847,0.74951,-0.32809,0.07648,-0.56976
1745607603.0574498,0.287,-9.304,12.555,-36.359,6.581,-65.347,0.74951,-0.32809,0.07648,-0.56976
1745607603.058445,0.287,-9.304,12.555,-36.233,10.761,-64.88,0.74951,-0.32809,0.07648,-0.56976
1745607603.0594451,-2.188,-8.638,12.119,-36.156,14.914,-64.363,0.74951,-0.32809,0.07648,-0.56976
1745607603.0943182,-2.188,-8.638,12.119,-36.134,19.034,-63.798,0.74951,-0.32809,0.07648,-0.56976
1745607603.0963156,-3.496,-8.092,11.684,-36.129,23.0,-63.073,0.74951,-0.32809,0.07648,-0.56976
1745607603.0977075,-3.496,-8.092,11.684,-36.123,26.818,-62.194,0.74951,-0.32809,0.07648,-0.56976
1745607603.0983222,-4.463,-7.925,11.052,-36.019,30.366,-61.068,0.74951,-0.32809,0.07648,-0.56976
1745607603.1556213,-4.463,-7.925,11.052,-35.799,33.651,-59.678,0.74951,-0.32809,0.07648,-0.56976
1745607603.1836283,-4.774,-7.666,10.989,-35.376,36.612,-57.969,0.74951,-0.32809,0.07648,-0.56976
1745607603.184637,-4.774,-7.666,10.989,-34.733,39.238,-55.915,0.74951,-0.32809,0.07648,-0.56976
1745607603.1856275,-5.076,-8.001,11.272,-33.788,41.572,-53.531,0.74951,-0.32809,0.07648,-0.56976
1745607603.187637,-5.076,-8.001,11.272,-32.531,43.594,-50.79,0.74951,-0.32809,0.07648,-0.56976
1745607603.1886253,-5.076,-8.27,11.411,-30.861,45.346,-47.703,0.74951,-0.32809,0.07648,-0.56976
1745607603.189631,-5.076,-8.27,11.411,-28.784,46.802,-44.264,0.74951,-0.32809,0.07648,-0.56976
1745607603.189631,-4.405,-8.131,11.483,-26.323,48.043,-40.573,0.74951,-0.32809,0.07648,-0.56976
1745607603.2154133,-4.405,-8.131,11.483,-23.489,49.054,-36.639,0.74951,-0.32809,0.07648,-0.56976
1745607603.2174168,-3.587,-7.072,10.654,-20.347,49.818,-32.536,0.87207,-0.04803,0.44403,-0.19974
1745607603.2184134,-3.587,-7.072,10.654,-16.941,50.323,-28.306,0.87207,-0.04803,0.44403,-0.19974
1745607603.2197716,-2.586,-6.22,9.318,-13.425,50.543,-24.088,0.87207,-0.04803,0.44403,-0.19974
1745607603.245909,-2.586,-6.22,9.318,-9.86,50.482,-19.94,0.87207,-0.04803,0.44403,-0.19974
1745607603.246916,-2.097,-4.75,8.624,-6.389,50.175,-15.991,0.87207,-0.04803,0.44403,-0.19974
1745607603.2479143,-2.097,-4.75,8.624,-3.06,49.642,-12.283,0.87207,-0.04803,0.44403,-0.19974
1745607603.2489119,-1.135,-3.247,7.939,0.066,48.95,-8.86,0.87207,-0.04803,0.44403,-0.19974
1745607603.2759073,-1.135,-3.247,7.939,2.988,48.131,-5.746,0.87207,-0.04803,0.44403,-0.19974
1745607603.322905,-1.01,-1.312,7.226,5.68,47.285,-2.917,0.87207,-0.04803,0.44403,-0.19974
1745607603.3239064,-1.01,-1.312,7.226,8.163,46.434,-0.357,0.87207,-0.04803,0.44403,-0.19974
1745607603.3239064,-1.149,-0.153,6.412,10.437,45.599,1.978,0.87207,-0.04803,0.44403,-0.19974
1745607603.335615,-1.149,-0.153,6.412,12.524,44.797,4.103,0.87207,-0.04803,0.44403,-0.19974
1745607603.3366072,-0.407,0.488,5.995,14.442,44.05,6.059,0.87207,-0.04803,0.44403,-0.19974
1745607603.3376064,-0.407,0.488,5.995,16.21,43.369,7.855,0.87207,-0.04803,0.44403,-0.19974
1745607603.3386102,-0.326,0.867,5.622,17.875,42.764,9.525,0.87207,-0.04803,0.44403,-0.19974
1745607603.3663487,-0.326,0.867,5.622,19.44,42.237,11.074,0.87207,-0.04803,0.44403,-0.19974
1745607603.3673453,-0.603,1.824,4.468,20.901,41.732,12.486,0.87207,-0.04803,0.44403,-0.19974
1745607603.3683398,-0.603,1.824,4.468,22.275,41.248,13.766,0.87207,-0.04803,0.44403,-0.19974
1745607603.3693445,-0.484,2.95,3.266,23.533,40.787,14.919,0.91977,0.13806,0.36478,0.04248
1745607603.395711,-0.484,2.95,3.266,24.686,40.353,15.947,0.91977,0.13806,0.36478,0.04248
1745607603.4462101,-1.149,3.682,2.964,25.73,39.941,16.87,0.91977,0.13806,0.36478,0.04248
1745607603.4472044,-1.149,3.682,2.964,26.675,39.556,17.682,0.91977,0.13806,0.36478,0.04248
1745607603.4482064,-1.561,4.496,2.629,27.526,39.133,18.369,0.91977,0.13806,0.36478,0.04248
1745607603.4554002,-1.561,4.496,2.629,28.29,38.672,18.929,0.91977,0.13806,0.36478,0.04248
1745607603.4564037,-1.135,4.932,2.404,28.971,38.199,19.385,0.91977,0.13806,0.36478,0.04248
1745607603.4564037,-1.135,4.932,2.404,29.581,37.711,19.731,0.91977,0.13806,0.36478,0.04248
1745607603.4574075,-1.451,5.181,2.289,30.13,37.238,19.979,0.91977,0.13806,0.36478,0.04248
1745607603.4847083,-1.451,5.181,2.289,30.619,36.782,20.132,0.91977,0.13806,0.36478,0.04248
1745607603.4867053,-1.48,5.99,2.112,31.064,36.359,20.209,0.91977,0.13806,0.36478,0.04248
1745607603.4877033,-1.48,5.99,2.112,31.465,35.969,20.22,0.91977,0.13806,0.36478,0.04248
1745607603.4887037,-1.786,6.201,2.423,31.811,35.612,20.171,0.91977,0.13806,0.36478,0.04248
1745607603.5762308,-1.786,6.201,2.423,32.108,35.299,20.067,0.91977,0.13806,0.36478,0.04248
1745607603.6054919,-2.112,6.053,2.983,32.344,34.991,19.891,0.91977,0.13806,0.36478,0.04248
1745607603.606233,-2.112,6.053,2.983,32.514,34.7,19.649,0.91977,0.13806,0.36478,0.04248
1745607603.6073768,-2.705,6.321,3.237,32.651,34.426,19.347,0.91977,0.13806,0.36478,0.04248
1745607603.6085865,-2.705,6.321,3.237,32.75,34.167,18.995,0.91788,0.21808,0.32379,0.07083
1745607603.6092272,-2.753,6.637,3.543,32.811,33.926,18.605,0.91788,0.21808,0.32379,0.07083
1745607603.6092272,-2.753,6.637,3.543,32.844,33.706,18.182,0.91788,0.21808,0.32379,0.07083
1745607603.6105864,-3.323,6.665,4.171,32.844,33.486,17.743,0.91788,0.21808,0.32379,0.07083
1745607603.6112282,-3.323,6.665,4.171,32.822,33.272,17.281,0.91788,0.21808,0.32379,0.07083
1745607603.6112282,-3.156,6.321,4.678,32.75,33.036,16.76,0.91788,0.21808,0.32379,0.07083
1745607603.6125863,-3.156,6.321,4.678,32.646,32.789,16.194,0.91788,0.21808,0.32379,0.07083
1745607603.6132264,-3.347,6.455,5.095,32.509,32.552,15.595,0.91788,0.21808,0.32379,0.07083
1745607603.6656287,-3.347,6.455,5.095,32.355,32.333,14.974,0.91788,0.21808,0.32379,0.07083
1745607603.6662765,-4.137,6.445,5.789,32.201,32.135,14.348,0.91788,0.21808,0.32379,0.07083
1745607603.6682782,-4.137,6.445,5.789,32.047,31.97,13.716,0.91788,0.21808,0.32379,0.07083
1745607603.6692877,-4.195,6.517,6.072,31.888,31.8,13.074,0.91788,0.21808,0.32379,0.07083
1745607603.6956823,-4.195,6.517,6.072,31.729,31.624,12.42,0.91788,0.21808,0.32379,0.07083
1745607603.7509594,-3.831,6.239,5.962,31.569,31.47,11.777,0.91788,0.21808,0.32379,0.07083
1745607603.7519524,-3.831,6.239,5.962,31.404,31.333,11.129,0.91788,0.21808,0.32379,0.07083
1745607603.752966,-4.252,6.235,6.206,31.234,31.229,10.47,0.91788,0.21808,0.32379,0.07083
1745607603.753967,-4.252,6.235,6.206,31.053,31.157,9.822,0.91788,0.21808,0.32379,0.07083
1745607603.753967,-4.764,6.139,6.699,30.877,31.086,9.163,0.91788,0.21808,0.32379,0.07083
1745607603.7549684,-4.764,6.139,6.699,30.707,31.025,8.503,0.91788,0.21808,0.32379,0.07083
1745607603.7559605,-4.726,5.899,6.814,30.547,30.976,7.85,0.91788,0.21808,0.32379,0.07083
1745607603.7855678,-4.726,5.899,6.814,30.394,30.948,7.207,0.91788,0.21808,0.32379,0.07083
1745607603.7869284,-5.176,5.76,6.862,30.267,30.959,6.592,0.91788,0.21808,0.32379,0.07083
1745607603.787569,-5.176,5.76,6.862,30.157,31.009,5.993,0.91788,0.21808,0.32379,0.07083
1745607603.7895691,-5.392,5.957,6.594,30.064,31.058,5.411,0.91788,0.21808,0.32379,0.07083
1745607603.816053,-5.392,5.957,6.594,29.987,31.102,4.845,0.91788,0.21808,0.32379,0.07083
1745607603.8450508,-5.392,5.746,6.608,29.91,31.124,4.268,0.91788,0.21808,0.32379,0.07083
1745607603.8460484,-5.392,5.746,6.608,29.828,31.124,3.691,0.91788,0.21808,0.32379,0.07083
1745607603.8480577,-5.325,5.77,6.756,29.751,31.124,3.115,0.93256,0.23978,0.26654,-0.04123
1745607603.849051,-5.325,5.77,6.756,29.674,31.119,2.538,0.93256,0.23978,0.26654,-0.04123
1745607603.8500555,-5.401,5.684,6.728,29.608,31.119,1.972,0.93256,0.23978,0.26654,-0.04123
1745607603.8520517,-5.401,5.684,6.728,29.559,31.124,1.417,0.93256,0.23978,0.26654,-0.04123
1745607603.8530538,-5.674,5.65,6.723,29.52,31.124,0.873,0.93256,0.23978,0.26654,-0.04123
1745607603.9052713,-5.674,5.65,6.723,29.498,31.113,0.352,0.93256,0.23978,0.26654,-0.04123
1745607603.9072728,-5.483,5.569,6.479,29.482,31.097,-0.165,0.93256,0.23978,0.26654,-0.04123
1745607603.9082718,-5.483,5.569,6.479,29.482,31.064,-0.67,0.93256,0.23978,0.26654,-0.04123
1745607603.9096265,-5.353,5.784,6.426,29.482,31.042,-1.165,0.93256,0.23978,0.26654,-0.04123
1745607603.9354715,-5.353,5.784,6.426,29.487,31.02,-1.653,0.93256,0.23978,0.26654,-0.04123
1745607603.9811153,-5.641,5.54,6.574,29.498,30.998,-2.131,0.93256,0.23978,0.26654,-0.04123
1745607603.982117,-5.641,5.54,6.574,29.515,30.981,-2.587,0.93256,0.23978,0.26654,-0.04123
1745607603.982117,-5.617,5.617,6.316,29.542,30.954,-3.038,0.93256,0.23978,0.26654,-0.04123
1745607603.9953802,-5.617,5.617,6.316,29.57,30.91,-3.483,0.93256,0.23978,0.26654,-0.04123
1745607603.9953802,-5.301,5.545,6.158,29.603,30.866,-3.922,0.93256,0.23978,0.26654,-0.04123
1745607603.99638,-5.301,5.545,6.158,29.636,30.822,-4.351,0.93256,0.23978,0.26654,-0.04123
1745607603.99638,-5.325,5.488,6.211,29.669,30.778,-4.779,0.93256,0.23978,0.26654,-0.04123
1745607604.025293,-5.325,5.488,6.211,29.707,30.729,-5.208,0.93256,0.23978,0.26654,-0.04123
1745607604.0262837,-5.21,5.516,6.163,29.734,30.679,-5.636,0.93256,0.23978,0.26654,-0.04123
1745607604.0262837,-5.21,5.516,6.163,29.767,30.63,-6.075,0.93256,0.23978,0.26654,-0.04123
1745607604.0272834,-5.205,5.478,6.096,29.795,30.569,-6.504,0.93256,0.23978,0.26654,-0.04123
1745607604.0550358,-5.205,5.478,6.096,29.828,30.509,-6.932,0.92661,0.26263,0.2395,-0.12228
1745607604.1000564,-5.052,5.464,6.033,29.855,30.449,-7.35,0.92661,0.26263,0.2395,-0.12228
1745607604.1010547,-5.052,5.464,6.033,29.883,30.394,-7.756,0.92661,0.26263,0.2395,-0.12228
1745607604.102053,-5.181,5.459,6.029,29.91,30.35,-8.157,0.92661,0.26263,0.2395,-0.12228
1745607604.102053,-5.181,5.459,6.029,29.932,30.306,-8.553,0.92661,0.26263,0.2395,-0.12228
1745607604.1030507,-5.191,5.43,6.014,29.949,30.262,-8.948,0.92661,0.26263,0.2395,-0.12228
1745607604.104057,-5.191,5.43,6.014,29.971,30.218,-9.349,0.92661,0.26263,0.2395,-0.12228
1745607604.105055,-5.157,5.397,6.072,29.982,30.174,-9.745,0.92661,0.26263,0.2395,-0.12228
1745607604.1447582,-5.157,5.397,6.072,29.998,30.13,-10.151,0.92661,0.26263,0.2395,-0.12228
1745607604.1457574,-5.181,5.42,5.976,30.009,30.086,-10.541,0.92661,0.26263,0.2395,-0.12228
1745607604.1467602,-5.181,5.42,5.976,30.026,30.042,-10.942,0.92661,0.26263,0.2395,-0.12228
1745607604.1477575,-5.329,5.617,6.024,30.037,29.993,-11.327,0.92661,0.26263,0.2395,-0.12228
1745607604.1757948,-5.329,5.617,6.024,30.048,29.949,-11.711,0.92661,0.26263,0.2395,-0.12228
1745607604.2047958,-5.186,5.545,6.105,30.059,29.899,-12.09,0.92661,0.26263,0.2395,-0.12228
1745607604.2057989,-5.186,5.545,6.105,30.07,29.85,-12.464,0.92661,0.26263,0.2395,-0.12228
1745607604.2068026,-5.296,5.468,6.12,30.075,29.789,-12.838,0.92661,0.26263,0.2395,-0.12228
1745607604.2087932,-5.296,5.468,6.12,30.075,29.729,-13.2,0.92661,0.26263,0.2395,-0.12228
1745607604.2087932,-5.258,5.713,6.163,30.064,29.652,-13.557,0.92661,0.26263,0.2395,-0.12228
1745607604.2107923,-5.258,5.713,6.163,30.053,29.581,-13.92,0.91919,0.27814,0.21582,-0.17612
1745607604.212149,-5.061,5.502,6.33,30.037,29.526,-14.266,0.91919,0.27814,0.21582,-0.17612
1745607604.2651062,-2.528,2.749,3.165,30.026,29.465,-14.612,0.91919,0.27814,0.21582,-0.17612
1745607604.2671037,-5.095,5.435,6.455,30.02,29.427,-14.941,0.91919,0.27814,0.21582,-0.17612
1745607604.2681024,-5.095,5.435,6.455,30.015,29.394,-15.266,0.91919,0.27814,0.21582,-0.17612
1745607604.2691119,-5.157,5.526,6.383,30.004,29.361,-15.59,0.91919,0.27814,0.21582,-0.17612
