timestamp,AccX,AccY,AccZ,AngX,AngY,AngZ,Q0,Q1,Q2,Q3
1745601717.950667,7.154,1.226,6.689,6.037,-49.499,-125.041,0.43317,-0.35101,-0.23328,-0.79663
1745601717.9626656,7.154,1.226,6.689,6.021,-49.477,-124.986,0.43317,-0.35101,-0.23328,-0.79663
1745601717.9636652,7.087,1.283,6.685,5.999,-49.466,-124.937,0.43832,-0.34863,-0.23529,-0.79425
1745601717.9646626,7.087,1.283,6.685,5.977,-49.455,-124.898,0.43832,-0.34863,-0.23529,-0.79425
1745601717.9646626,7.183,1.326,6.689,5.955,-49.455,-124.849,0.43832,-0.34863,-0.23529,-0.79425
1745601717.9656618,7.183,1.326,6.689,5.933,-49.46,-124.799,0.43832,-0.34863,-0.23529,-0.79425
1745601717.9666615,7.336,1.288,6.699,5.911,-49.455,-124.755,0.43832,-0.34863,-0.23529,-0.79425
1745601717.9668674,7.336,1.288,6.699,5.889,-49.449,-124.706,0.43832,-0.34863,-0.23529,-0.79425
1745601717.9668674,7.269,1.226,6.723,5.867,-49.438,-124.651,0.43832,-0.34863,-0.23529,-0.79425
1745601717.9678798,7.269,1.226,6.723,5.845,-49.433,-124.601,0.43832,-0.34863,-0.23529,-0.79425
1745601717.9678798,7.183,1.288,6.68,5.839,-49.427,-124.552,0.43832,-0.34863,-0.23529,-0.79425
1745601717.9688814,7.183,1.288,6.68,5.828,-49.422,-124.508,0.43832,-0.34863,-0.23529,-0.79425
1745601718.001163,7.269,1.255,6.67,5.839,-49.449,-124.486,0.43832,-0.34863,-0.23529,-0.79425
1745601718.001163,7.269,1.255,6.67,5.85,-49.471,-124.464,0.43832,-0.34863,-0.23529,-0.79425
1745601718.003165,7.384,1.336,6.766,5.861,-49.499,-124.448,0.43832,-0.34863,-0.23529,-0.79425
1745601718.003165,7.384,1.336,6.766,5.872,-49.521,-124.437,0.43832,-0.34863,-0.23529,-0.79425
1745601718.0314822,7.465,1.355,6.747,5.878,-49.521,-124.409,0.43832,-0.34863,-0.23529,-0.79425
1745601718.0324795,7.465,1.355,6.747,5.883,-49.521,-124.382,0.43832,-0.34863,-0.23529,-0.79425
1745601718.0334706,7.436,1.279,6.78,5.878,-49.499,-124.338,0.43832,-0.34863,-0.23529,-0.79425
1745601718.0344822,7.436,1.279,6.78,5.872,-49.477,-124.299,0.43832,-0.34863,-0.23529,-0.79425
1745601718.091267,7.293,1.101,6.871,5.867,-49.46,-124.261,0.43832,-0.34863,-0.23529,-0.79425
1745601718.1419039,7.293,1.101,6.871,5.856,-49.438,-124.217,0.43832,-0.34863,-0.23529,-0.79425
1745601718.1425586,7.384,1.101,6.819,5.85,-49.427,-124.178,0.43832,-0.34863,-0.23529,-0.79425
1745601718.1425586,7.384,1.101,6.819,5.845,-49.417,-124.14,0.43832,-0.34863,-0.23529,-0.79425
1745601718.143553,7.312,1.049,6.776,5.828,-49.395,-124.085,0.43832,-0.34863,-0.23529,-0.79425
1745601718.1445577,7.312,1.049,6.776,5.806,-49.373,-124.03,0.43832,-0.34863,-0.23529,-0.79425
1745601718.14555,7.14,1.097,6.737,5.779,-49.345,-123.959,0.43832,-0.34863,-0.23529,-0.79425
1745601718.1465495,7.14,1.097,6.737,5.746,-49.312,-123.882,0.43832,-0.34863,-0.23529,-0.79425
1745601718.182982,7.116,1.154,6.732,5.713,-49.285,-123.81,0.43832,-0.34863,-0.23529,-0.79425
1745601718.1836338,7.116,1.154,6.732,5.685,-49.252,-123.734,0.43832,-0.34863,-0.23529,-0.79425
1745601718.185628,7.049,1.116,6.732,5.641,-49.202,-123.646,0.43832,-0.34863,-0.23529,-0.79425
1745601718.1869912,7.049,1.116,6.732,5.603,-49.153,-123.558,0.44711,-0.34518,-0.23569,-0.79074
1745601718.211743,6.986,1.125,6.689,5.559,-49.103,-123.47,0.44711,-0.34518,-0.23569,-0.79074
1745601718.2677567,6.986,1.125,6.689,5.515,-49.059,-123.382,0.44711,-0.34518,-0.23569,-0.79074
1745601718.269752,6.958,1.101,6.603,5.493,-49.037,-123.305,0.44711,-0.34518,-0.23569,-0.79074
1745601718.2707508,6.958,1.101,6.603,5.466,-49.016,-123.234,0.44711,-0.34518,-0.23569,-0.79074
1745601718.2717557,7.025,1.12,6.574,5.471,-49.026,-123.19,0.44711,-0.34518,-0.23569,-0.79074
1745601718.272748,7.025,1.12,6.574,5.471,-49.037,-123.146,0.44711,-0.34518,-0.23569,-0.79074
1745601718.272748,7.197,1.226,6.546,5.488,-49.059,-123.113,0.44711,-0.34518,-0.23569,-0.79074
1745601718.2737505,7.197,1.226,6.546,5.51,-49.081,-123.08,0.44711,-0.34518,-0.23569,-0.79074
1745601718.274756,7.398,1.279,6.598,5.543,-49.092,-123.052,0.44711,-0.34518,-0.23569,-0.79074
1745601718.2757518,7.398,1.279,6.598,5.576,-49.109,-123.019,0.44711,-0.34518,-0.23569,-0.79074
1745601718.27676,7.479,1.389,6.699,5.609,-49.136,-122.997,0.44711,-0.34518,-0.23569,-0.79074
1745601718.2777436,7.479,1.389,6.699,5.641,-49.169,-122.97,0.44711,-0.34518,-0.23569,-0.79074
1745601718.300549,7.7,1.36,6.852,5.68,-49.219,-122.953,0.44711,-0.34518,-0.23569,-0.79074
1745601718.3025465,7.7,1.36,6.852,5.718,-49.268,-122.937,0.44711,-0.34518,-0.23569,-0.79074
1745601718.3035467,7.728,1.326,7.106,5.768,-49.334,-122.937,0.44711,-0.34518,-0.23569,-0.79074
1745601718.3049016,7.728,1.326,7.106,5.812,-49.4,-122.937,0.44711,-0.34518,-0.23569,-0.79074
1745601718.36213,7.824,1.561,7.14,5.878,-49.477,-122.97,0.44711,-0.34518,-0.23569,-0.79074
1745601718.392125,7.824,1.561,7.14,5.949,-49.559,-123.008,0.45172,-0.34518,-0.24075,-0.78656
1745601718.393127,7.925,1.863,7.192,6.048,-49.631,-123.08,0.45172,-0.34518,-0.24075,-0.78656
1745601718.3951292,7.925,1.863,7.192,6.152,-49.708,-123.151,0.45172,-0.34518,-0.24075,-0.78656
1745601718.3961222,7.872,2.097,7.321,6.29,-49.757,-123.25,0.45172,-0.34518,-0.24075,-0.78656
1745601718.397125,7.872,2.097,7.321,6.432,-49.807,-123.349,0.45172,-0.34518,-0.24075,-0.78656
1745601718.3981237,7.934,2.274,7.283,6.636,-49.85,-123.486,0.45172,-0.34518,-0.24075,-0.78656
1745601718.3991263,7.934,2.274,7.283,6.833,-49.894,-123.624,0.45172,-0.34518,-0.24075,-0.78656
1745601718.4213426,8.045,2.356,6.929,7.103,-49.944,-123.788,0.45172,-0.34518,-0.24075,-0.78656
1745601718.4223456,8.045,2.356,6.929,7.372,-49.988,-123.959,0.45172,-0.34518,-0.24075,-0.78656
1745601718.4233477,7.81,2.337,6.531,7.685,-50.076,-124.156,0.45172,-0.34518,-0.24075,-0.78656
1745601718.4254375,7.81,2.337,6.531,8.004,-50.169,-124.36,0.45172,-0.34518,-0.24075,-0.78656
1745601718.4817283,7.829,2.112,6.129,8.333,-50.312,-124.585,0.45172,-0.34518,-0.24075,-0.78656
1745601718.546724,7.829,2.112,6.129,8.663,-50.46,-124.81,0.45172,-0.34518,-0.24075,-0.78656
1745601718.5477366,8.045,1.963,5.818,8.965,-50.598,-125.019,0.45172,-0.34518,-0.24075,-0.78656
1745601718.5487342,8.045,1.963,5.818,9.261,-50.735,-125.228,0.45172,-0.34518,-0.24075,-0.78656
1745601718.5497324,8.169,1.762,6.239,9.476,-50.812,-125.381,0.4447,-0.34564,-0.26181,-0.78366
1745601718.5507336,8.169,1.762,6.239,9.69,-50.889,-125.535,0.4447,-0.34564,-0.26181,-0.78366
1745601718.551731,8.15,1.824,6.469,9.849,-50.949,-125.656,0.4447,-0.34564,-0.26181,-0.78366
1745601718.5537307,8.15,1.824,6.469,10.009,-51.015,-125.782,0.4447,-0.34564,-0.26181,-0.78366
1745601718.5547354,8.255,1.834,6.886,10.146,-51.086,-125.909,0.4447,-0.34564,-0.26181,-0.78366
1745601718.5560858,8.255,1.834,6.886,10.283,-51.158,-126.041,0.4447,-0.34564,-0.26181,-0.78366
1745601718.5567281,8.389,2.002,6.948,10.426,-51.191,-126.178,0.4447,-0.34564,-0.26181,-0.78366
1745601718.5567281,8.389,2.002,6.948,10.569,-51.224,-126.315,0.4447,-0.34564,-0.26181,-0.78366
1745601718.630975,8.341,2.217,6.919,10.734,-51.257,-126.48,0.4447,-0.34564,-0.26181,-0.78366
1745601718.6759825,8.341,2.217,6.919,10.893,-51.284,-126.65,0.4447,-0.34564,-0.26181,-0.78366
1745601718.6759825,8.399,2.313,6.962,11.102,-51.317,-126.854,0.4447,-0.34564,-0.26181,-0.78366
1745601718.6769829,8.399,2.313,6.962,11.316,-51.345,-127.062,0.4447,-0.34564,-0.26181,-0.78366
1745601718.6779726,8.667,2.514,6.512,11.585,-51.334,-127.304,0.4447,-0.34564,-0.26181,-0.78366
1745601718.6789742,8.667,2.514,6.512,11.86,-51.323,-127.551,0.4447,-0.34564,-0.26181,-0.78366
1745601718.6789742,8.547,2.672,6.388,12.14,-51.235,-127.782,0.4447,-0.34564,-0.26181,-0.78366
1745601718.6799812,8.547,2.672,6.388,12.415,-51.147,-128.018,0.4447,-0.34564,-0.26181,-0.78366
1745601718.7215197,8.456,2.5,6.718,12.656,-50.988,-128.21,0.4447,-0.34564,-0.26181,-0.78366
1745601718.722519,8.456,2.5,6.718,12.898,-50.828,-128.408,0.4447,-0.34564,-0.26181,-0.78366
1745601718.7235334,8.26,2.495,6.699,13.145,-50.641,-128.606,0.4447,-0.34564,-0.26181,-0.78366
1745601718.724528,8.26,2.495,6.699,13.387,-50.455,-128.804,0.4447,-0.34564,-0.26181,-0.78366
1745601718.725527,8.011,2.332,6.56,13.661,-50.295,-129.073,0.4447,-0.34564,-0.26181,-0.78366
1745601718.726527,8.011,2.332,6.56,13.931,-50.136,-129.331,0.4447,-0.34564,-0.26181,-0.78366
1745601718.728526,7.982,2.236,6.56,14.216,-49.944,-129.633,0.4447,-0.34564,-0.26181,-0.78366
1745601718.729524,7.982,2.236,6.56,14.496,-49.757,-129.935,0.4447,-0.34564,-0.26181,-0.78366
1745601718.7512693,7.958,1.978,6.503,14.777,-49.477,-130.232,0.4447,-0.34564,-0.26181,-0.78366
1745601718.7802758,7.958,1.978,6.503,15.051,-49.197,-130.523,0.4447,-0.34564,-0.26181,-0.78366
1745601718.7822819,7.733,1.815,6.349,15.331,-48.862,-130.814,0.4447,-0.34564,-0.26181,-0.78366
1745601718.7834427,7.733,1.815,6.349,15.595,-48.527,-131.1,0.42511,-0.3208,-0.28107,-0.79831
1745601718.7842798,6.857,1.8,6.029,15.859,-48.186,-131.391,0.42511,-0.3208,-0.28107,-0.79831
1745601718.785281,6.857,1.8,6.029,16.117,-47.845,-131.677,0.42511,-0.3208,-0.28107,-0.79831
1745601718.7862787,6.618,1.848,5.851,16.386,-47.521,-132.012,0.42511,-0.3208,-0.28107,-0.79831
1745601718.7872798,6.618,1.848,5.851,16.65,-47.197,-132.341,0.42511,-0.3208,-0.28107,-0.79831
1745601718.8416672,6.321,1.997,5.899,16.919,-46.873,-132.704,0.42511,-0.3208,-0.28107,-0.79831
1745601718.843673,6.321,1.997,5.899,17.183,-46.549,-133.061,0.42511,-0.3208,-0.28107,-0.79831
1745601718.844667,6.153,1.901,5.842,17.468,-46.252,-133.462,0.42511,-0.3208,-0.28107,-0.79831
1745601718.8456686,6.153,1.901,5.842,17.743,-45.95,-133.852,0.42511,-0.3208,-0.28107,-0.79831
1745601718.8711762,5.727,1.968,5.612,18.034,-45.681,-134.269,0.42511,-0.3208,-0.28107,-0.79831
1745601718.9839442,5.727,1.968,5.612,18.314,-45.412,-134.687,0.42511,-0.3208,-0.28107,-0.79831
1745601718.9849446,5.483,1.944,5.631,18.605,-45.181,-135.137,0.42511,-0.3208,-0.28107,-0.79831
1745601718.9849446,5.483,1.944,5.631,18.896,-44.956,-135.588,0.42511,-0.3208,-0.28107,-0.79831
1745601718.9859464,5.55,1.882,6.0,19.171,-44.769,-136.055,0.42511,-0.3208,-0.28107,-0.79831
1745601718.9869525,5.55,1.882,6.0,19.44,-44.583,-136.511,0.42511,-0.3208,-0.28107,-0.79831
1745601718.9869525,5.373,1.915,6.23,19.704,-44.451,-136.967,0.42511,-0.3208,-0.28107,-0.79831
1745601718.9879391,5.373,1.915,6.23,19.957,-44.319,-137.417,0.42511,-0.3208,-0.28107,-0.79831
1745601718.988942,5.459,1.781,6.627,20.187,-44.264,-137.856,0.42511,-0.3208,-0.28107,-0.79831
1745601718.9899433,5.459,1.781,6.627,20.407,-44.209,-138.296,0.42511,-0.3208,-0.28107,-0.79831
1745601718.9909396,5.756,1.958,7.096,20.561,-44.149,-138.647,0.42511,-0.3208,-0.28107,-0.79831
1745601718.9909396,5.756,1.958,7.096,20.709,-44.083,-138.999,0.42511,-0.3208,-0.28107,-0.79831
1745601718.991942,5.99,2.126,7.412,20.781,-44.006,-139.257,0.42511,-0.3208,-0.28107,-0.79831
1745601718.9929366,5.856,1.887,7.547,20.825,-43.934,-139.488,0.42511,-0.3208,-0.28107,-0.79831
1745601718.9929366,5.856,1.887,7.547,20.841,-43.879,-139.686,0.42511,-0.3208,-0.28107,-0.79831
1745601718.993932,6.076,1.858,7.513,20.841,-43.841,-139.878,0.42511,-0.3208,-0.28107,-0.79831
1745601719.0510633,6.076,1.858,7.513,20.841,-43.824,-140.065,0.42511,-0.3208,-0.28107,-0.79831
1745601719.0520644,6.187,1.887,7.264,20.83,-43.808,-140.229,0.42511,-0.3208,-0.28107,-0.79831
1745601719.053071,6.187,1.887,7.264,20.808,-43.786,-140.383,0.42511,-0.3208,-0.28107,-0.79831
1745601719.0540655,6.153,1.839,7.049,20.781,-43.726,-140.504,0.42511,-0.3208,-0.28107,-0.79831
1745601719.0814264,6.153,1.839,7.049,20.737,-43.632,-140.592,0.42511,-0.3208,-0.28107,-0.79831
1745601719.0824242,5.986,2.097,7.034,20.693,-43.517,-140.663,0.37085,-0.28781,-0.28058,-0.83713
1745601719.0834231,5.986,2.097,7.034,20.649,-43.38,-140.718,0.37085,-0.28781,-0.28058,-0.83713
1745601719.0844243,5.885,2.409,6.991,20.621,-43.253,-140.779,0.37085,-0.28781,-0.28058,-0.83713
1745601719.132419,5.885,2.409,6.991,20.616,-43.132,-140.85,0.37085,-0.28781,-0.28058,-0.83713
1745601719.1334112,5.851,2.902,6.905,20.638,-43.05,-140.949,0.37085,-0.28781,-0.28058,-0.83713
1745601719.1344147,5.851,2.902,6.905,20.693,-43.0,-141.07,0.37085,-0.28781,-0.28058,-0.83713
1745601719.1354144,6.172,3.247,6.838,20.764,-42.973,-141.224,0.37085,-0.28781,-0.28058,-0.83713
1745601719.141228,6.172,3.247,6.838,20.863,-42.968,-141.416,0.37085,-0.28781,-0.28058,-0.83713
1745601719.141228,6.421,3.481,6.694,20.956,-42.962,-141.608,0.37085,-0.28781,-0.28058,-0.83713
1745601719.1422338,6.421,3.481,6.694,21.039,-42.951,-141.817,0.37085,-0.28781,-0.28058,-0.83713
1745601719.143233,6.321,3.634,6.45,21.121,-42.968,-142.064,0.37085,-0.28781,-0.28058,-0.83713
1745601719.233346,6.321,3.634,6.45,21.209,-43.006,-142.344,0.37085,-0.28781,-0.28058,-0.83713
1745601719.2633553,6.369,3.73,6.124,21.313,-43.05,-142.668,0.37085,-0.28781,-0.28058,-0.83713
1745601719.2643478,6.369,3.73,6.124,21.429,-43.099,-143.031,0.37085,-0.28781,-0.28058,-0.83713
1745601719.2653525,6.244,3.735,5.851,21.555,-43.132,-143.421,0.37085,-0.28781,-0.28058,-0.83713
1745601719.2663481,6.244,3.735,5.851,21.687,-43.143,-143.839,0.37085,-0.28781,-0.28058,-0.83713
1745601719.2673469,6.258,3.232,6.067,21.819,-43.143,-144.278,0.37085,-0.28781,-0.28058,-0.83713
1745601719.2683496,6.258,3.232,6.067,21.956,-43.132,-144.734,0.37085,-0.28781,-0.28058,-0.83713
1745601719.2693398,6.043,2.954,6.507,22.077,-43.11,-145.184,0.37085,-0.28781,-0.28058,-0.83713
1745601719.271348,6.043,2.954,6.507,22.187,-43.083,-145.624,0.37085,-0.28781,-0.28058,-0.83713
1745601719.2723515,6.009,3.96,6.914,22.269,-43.028,-146.03,0.37085,-0.28781,-0.28058,-0.83713
1745601719.273345,6.009,3.96,6.914,22.324,-42.951,-146.398,0.33435,-0.29166,-0.27692,-0.85226
1745601719.2743483,6.033,4.128,7.24,22.368,-42.841,-146.722,0.33435,-0.29166,-0.27692,-0.85226
1745601719.3212285,6.033,4.128,7.24,22.396,-42.704,-146.992,0.33435,-0.29166,-0.27692,-0.85226
1745601719.3232355,5.66,3.735,7.422,22.429,-42.556,-147.211,0.33435,-0.29166,-0.27692,-0.85226
1745601719.324232,5.66,3.735,7.422,22.462,-42.402,-147.382,0.33435,-0.29166,-0.27692,-0.85226
1745601719.3252356,5.334,3.682,7.805,22.5,-42.27,-147.502,0.33435,-0.29166,-0.27692,-0.85226
1745601719.351341,5.334,3.682,7.805,22.544,-42.166,-147.574,0.33435,-0.29166,-0.27692,-0.85226
1745601719.4103377,5.464,4.334,7.81,22.582,-42.116,-147.618,0.33435,-0.29166,-0.27692,-0.85226
1745601719.4103377,5.464,4.334,7.81,22.626,-42.111,-147.634,0.33435,-0.29166,-0.27692,-0.85226
1745601719.4113443,6.009,4.626,7.867,22.665,-42.111,-147.618,0.33435,-0.29166,-0.27692,-0.85226
1745601719.4123428,6.009,4.626,7.867,22.692,-42.105,-147.568,0.33435,-0.29166,-0.27692,-0.85226
1745601719.413349,5.617,4.712,7.958,22.692,-42.083,-147.475,0.33435,-0.29166,-0.27692,-0.85226
1745601719.4143436,5.617,4.712,7.958,22.665,-42.039,-147.343,0.33435,-0.29166,-0.27692,-0.85226
1745601719.4163437,5.942,4.468,8.179,22.61,-42.001,-147.2,0.33435,-0.29166,-0.27692,-0.85226
1745601719.441573,5.942,4.468,8.179,22.538,-41.957,-147.047,0.33435,-0.29166,-0.27692,-0.85226
1745601719.4425738,6.321,3.749,7.69,22.456,-41.902,-146.898,0.33435,-0.29166,-0.27692,-0.85226
1745601719.443579,6.321,3.749,7.69,22.357,-41.841,-146.75,0.33435,-0.29166,-0.27692,-0.85226
1745601719.445581,5.784,3.5,7.436,22.247,-41.737,-146.596,0.33435,-0.29166,-0.27692,-0.85226
1745601719.4716718,5.784,3.5,7.436,22.115,-41.589,-146.42,0.33435,-0.29166,-0.27692,-0.85226
1745601719.5013196,5.248,3.601,7.609,21.978,-41.413,-146.228,0.33435,-0.29166,-0.27692,-0.85226
1745601719.502318,5.248,3.601,7.609,21.83,-41.204,-146.014,0.33173,-0.27948,-0.27097,-0.85925
1745601719.5033176,5.1,3.759,7.863,21.693,-40.99,-145.8,0.33173,-0.27948,-0.27097,-0.85925
1745601719.5314806,5.1,3.759,7.863,21.561,-40.765,-145.585,0.33173,-0.27948,-0.27097,-0.85925
1745601719.5324862,4.415,4.003,7.628,21.467,-40.573,-145.393,0.33173,-0.27948,-0.27097,-0.85925
1745601719.534487,4.415,4.003,7.628,21.407,-40.402,-145.228,0.33173,-0.27948,-0.27097,-0.85925
1745601719.534487,4.65,4.539,7.709,21.385,-40.314,-145.129,0.33173,-0.27948,-0.27097,-0.85925
1745601719.5621517,4.65,4.539,7.709,21.401,-40.298,-145.096,0.33173,-0.27948,-0.27097,-0.85925
1745601719.5631607,5.425,4.578,7.992,21.434,-40.32,-145.107,0.33173,-0.27948,-0.27097,-0.85925
1745601719.5641665,5.425,4.578,7.992,21.495,-40.38,-145.157,0.33173,-0.27948,-0.27097,-0.85925
1745601719.5661592,6.11,4.645,7.834,21.561,-40.408,-145.206,0.33173,-0.27948,-0.27097,-0.85925
1745601719.5913801,6.11,4.645,7.834,21.638,-40.408,-145.261,0.33173,-0.27948,-0.27097,-0.85925
1745601719.6449268,6.0,3.687,7.168,21.764,-40.424,-145.355,0.33173,-0.27948,-0.27097,-0.85925
1745601719.6459305,6.0,3.687,7.168,21.934,-40.463,-145.492,0.33173,-0.27948,-0.27097,-0.85925
1745601719.646925,6.311,2.504,6.608,22.159,-40.518,-145.684,0.33173,-0.27948,-0.27097,-0.85925
1745601719.6499252,6.311,2.504,6.608,22.44,-40.594,-145.931,0.33173,-0.27948,-0.27097,-0.85925
1745601719.6509266,6.536,3.223,6.589,22.714,-40.638,-146.184,0.33173,-0.27948,-0.27097,-0.85925
1745601719.6509266,6.536,3.223,6.589,22.989,-40.644,-146.437,0.33173,-0.27948,-0.27097,-0.85925
1745601719.6509266,6.349,3.553,6.967,23.247,-40.616,-146.662,0.33173,-0.27948,-0.27097,-0.85925
1745601719.6809232,6.349,3.553,6.967,23.478,-40.545,-146.86,0.33173,-0.27948,-0.27097,-0.85925
1745601719.6809232,6.129,3.112,7.02,23.725,-40.479,-147.063,0.33173,-0.27948,-0.27097,-0.85925
1745601719.681924,6.129,3.112,7.02,23.978,-40.419,-147.277,0.33173,-0.27948,-0.27097,-0.85925
1745601719.681924,6.081,2.729,6.795,24.23,-40.358,-147.497,0.33173,-0.27948,-0.27097,-0.85925
1745601719.7112992,6.081,2.729,6.795,24.483,-40.298,-147.722,0.33173,-0.27948,-0.27097,-0.85925
1745601719.7372935,6.182,3.199,6.78,24.725,-40.243,-147.947,0.33173,-0.27948,-0.27097,-0.85925
1745601719.7392933,6.182,3.199,6.78,24.955,-40.193,-148.178,0.32336,-0.26721,-0.28653,-0.8613
1745601719.7406485,6.273,3.582,6.656,25.153,-40.139,-148.392,0.32336,-0.26721,-0.28653,-0.8613
1745601719.7711947,6.273,3.582,6.656,25.318,-40.089,-148.601,0.32336,-0.26721,-0.28653,-0.8613
1745601719.7722027,6.393,3.366,6.723,25.472,-40.051,-148.826,0.32336,-0.26721,-0.28653,-0.8613
1745601719.7732022,6.393,3.366,6.723,25.615,-40.012,-149.068,0.32336,-0.26721,-0.28653,-0.8613
1745601719.7742019,6.167,3.448,6.704,25.763,-39.963,-149.315,0.32336,-0.26721,-0.28653,-0.8613
1745601719.8313994,6.167,3.448,6.704,25.9,-39.902,-149.573,0.32336,-0.26721,-0.28653,-0.8613
1745601719.890759,6.316,4.051,6.881,26.032,-39.825,-149.815,0.32336,-0.26721,-0.28653,-0.8613
1745601719.8914058,6.316,4.051,6.881,26.147,-39.732,-150.051,0.32336,-0.26721,-0.28653,-0.8613
1745601719.8924022,5.995,3.994,6.867,26.246,-39.617,-150.266,0.32336,-0.26721,-0.28653,-0.8613
1745601719.8934016,5.995,3.994,6.867,26.323,-39.49,-150.463,0.32336,-0.26721,-0.28653,-0.8613
1745601719.8944042,5.765,3.735,6.651,26.4,-39.364,-150.672,0.32336,-0.26721,-0.28653,-0.8613
1745601719.8944042,5.765,3.735,6.651,26.477,-39.249,-150.892,0.32336,-0.26721,-0.28653,-0.8613
1745601719.8954148,5.684,3.457,6.929,26.554,-39.139,-151.139,0.32336,-0.26721,-0.28653,-0.8613
1745601719.8964138,5.684,3.457,6.929,26.625,-39.034,-151.414,0.32336,-0.26721,-0.28653,-0.8613
1745601719.8974025,5.708,3.342,7.321,26.686,-38.914,-151.672,0.32336,-0.26721,-0.28653,-0.8613
1745601719.8974025,5.708,3.342,7.321,26.724,-38.771,-151.919,0.32336,-0.26721,-0.28653,-0.8613
1745601719.898402,5.497,3.869,7.298,26.757,-38.622,-152.144,0.32336,-0.26721,-0.28653,-0.8613
1745601719.9217706,5.497,3.869,7.298,26.779,-38.452,-152.347,0.32336,-0.26721,-0.28653,-0.8613
1745601719.922771,5.339,3.663,6.852,26.812,-38.304,-152.562,0.32336,-0.26721,-0.28653,-0.8613
1745601719.9247837,5.339,3.663,6.852,26.851,-38.188,-152.787,0.32336,-0.26721,-0.28653,-0.8613
1745601719.9257834,5.373,3.309,6.967,26.906,-38.095,-153.034,0.32336,-0.26721,-0.28653,-0.8613
1745601719.9514227,5.373,3.309,6.967,26.977,-38.024,-153.292,0.32336,-0.26721,-0.28653,-0.8613
1745601719.9784288,5.444,3.338,6.847,27.037,-37.941,-153.539,0.32336,-0.26721,-0.28653,-0.8613
1745601719.9794273,5.444,3.338,6.847,27.087,-37.853,-153.776,0.28348,-0.25699,-0.28741,-0.87799
1745601719.9804223,5.368,3.539,6.943,27.131,-37.744,-153.99,0.28348,-0.25699,-0.28741,-0.87799
1745601720.0408156,5.368,3.539,6.943,27.153,-37.617,-154.193,0.28348,-0.25699,-0.28741,-0.87799
1745601720.0428205,4.535,3.63,6.991,27.164,-37.507,-154.385,0.28348,-0.25699,-0.28741,-0.87799
1745601720.043822,4.535,3.63,6.991,27.164,-37.414,-154.572,0.28348,-0.25699,-0.28741,-0.87799
1745601720.0448165,5.186,3.788,7.278,27.153,-37.343,-154.759,0.28348,-0.25699,-0.28741,-0.87799
1745601720.045814,5.186,3.788,7.278,27.142,-37.288,-154.935,0.28348,-0.25699,-0.28741,-0.87799
1745601720.0478184,5.32,3.563,7.417,27.109,-37.216,-155.083,0.28348,-0.25699,-0.28741,-0.87799
1745601720.0488105,5.32,3.563,7.417,27.054,-37.134,-155.193,0.28348,-0.25699,-0.28741,-0.87799
1745601720.04982,4.693,3.314,7.317,26.988,-37.073,-155.303,0.28348,-0.25699,-0.28741,-0.87799
1745601720.0717566,4.693,3.314,7.317,26.922,-37.035,-155.418,0.28348,-0.25699,-0.28741,-0.87799
1745601720.122399,5.109,3.529,7.168,26.856,-37.024,-155.539,0.28348,-0.25699,-0.28741,-0.87799
1745601720.122399,5.109,3.529,7.168,26.801,-37.035,-155.676,0.26682,-0.25543,-0.28024,-0.88596
1745601720.123396,5.373,3.433,7.336,26.73,-37.029,-155.792,0.26682,-0.25543,-0.28024,-0.88596
1745601720.1307287,5.373,3.433,7.336,26.653,-37.013,-155.885,0.26682,-0.25543,-0.28024,-0.88596
1745601720.1307287,5.071,3.381,7.508,26.559,-36.974,-155.923,0.26682,-0.25543,-0.28024,-0.88596
1745601720.1317341,5.071,3.381,7.508,26.461,-36.931,-155.956,0.26682,-0.25543,-0.28024,-0.88596
1745601720.1327295,4.784,3.496,7.609,26.4,-36.914,-155.989,0.26682,-0.25543,-0.28024,-0.88596
1745601720.1612334,4.784,3.496,7.609,26.334,-36.892,-156.017,0.26682,-0.25543,-0.28024,-0.88596
1745601720.1622293,4.827,3.61,7.432,26.318,-36.936,-156.072,0.26682,-0.25543,-0.28024,-0.88596
1745601720.1632261,4.827,3.61,7.432,26.296,-36.969,-156.132,0.26682,-0.25543,-0.28024,-0.88596
1745601720.1642284,5.095,3.347,7.628,26.312,-37.079,-156.231,0.26682,-0.25543,-0.28024,-0.88596
1745601720.1912508,5.095,3.347,7.628,26.323,-37.183,-156.324,0.26682,-0.25543,-0.28024,-0.88596
1745601720.2412453,5.08,2.758,7.872,26.323,-37.266,-156.374,0.26682,-0.25543,-0.28024,-0.88596
1745601720.2422342,5.08,2.758,7.872,26.323,-37.348,-156.418,0.26682,-0.25543,-0.28024,-0.88596
1745601720.2422342,5.277,3.132,7.685,26.29,-37.392,-156.407,0.26682,-0.25543,-0.28024,-0.88596
1745601720.2512343,5.277,3.132,7.685,26.257,-37.43,-156.39,0.26682,-0.25543,-0.28024,-0.88596
1745601720.2522368,4.946,3.476,7.408,26.224,-37.485,-156.374,0.26682,-0.25543,-0.28024,-0.88596
1745601720.2522368,4.946,3.476,7.408,26.197,-37.54,-156.352,0.26682,-0.25543,-0.28024,-0.88596
1745601720.2532375,5.32,3.984,7.307,26.169,-37.645,-156.352,0.26682,-0.25543,-0.28024,-0.88596
1745601720.281482,5.32,3.984,7.307,26.153,-37.749,-156.346,0.26682,-0.25543,-0.28024,-0.88596
1745601720.2824972,6.057,3.687,7.508,26.109,-37.798,-156.297,0.26682,-0.25543,-0.28024,-0.88596
1745601720.2834957,6.057,3.687,7.508,26.076,-37.848,-156.242,0.26682,-0.25543,-0.28024,-0.88596
1745601720.2854815,5.286,3.582,7.192,26.032,-37.837,-156.138,0.26123,-0.26529,-0.27383,-0.88672
1745601720.31116,5.286,3.582,7.192,25.994,-37.826,-156.028,0.26123,-0.26529,-0.27383,-0.88672
1745601720.3671684,5.205,3.893,7.12,25.999,-37.848,-155.951,0.26123,-0.26529,-0.27383,-0.88672
1745601720.369159,5.205,3.893,7.12,26.005,-37.87,-155.88,0.26123,-0.26529,-0.27383,-0.88672
1745601720.3701766,5.09,3.591,6.996,26.06,-37.963,-155.863,0.26123,-0.26529,-0.27383,-0.88672
1745601720.373153,5.09,3.591,6.996,26.12,-38.057,-155.852,0.26123,-0.26529,-0.27383,-0.88672
1745601720.3741603,5.31,3.385,6.833,26.202,-38.21,-155.88,0.26123,-0.26529,-0.27383,-0.88672
1745601720.3751628,5.31,3.385,6.833,26.285,-38.364,-155.912,0.26123,-0.26529,-0.27383,-0.88672
1745601720.3761601,5.114,3.409,6.579,26.34,-38.535,-155.929,0.26123,-0.26529,-0.27383,-0.88672
1745601720.4016328,5.114,3.409,6.579,26.4,-38.705,-155.94,0.26123,-0.26529,-0.27383,-0.88672
1745601720.402635,4.635,2.969,5.827,26.472,-38.941,-155.995,0.26123,-0.26529,-0.27383,-0.88672
1745601720.402635,4.635,2.969,5.827,26.543,-39.177,-156.05,0.26123,-0.26529,-0.27383,-0.88672
1745601720.4036338,4.511,2.777,4.424,26.603,-39.424,-156.105,0.26123,-0.26529,-0.27383,-0.88672
1745601720.4324894,4.511,2.777,4.424,26.664,-39.672,-156.16,0.26123,-0.26529,-0.27383,-0.88672
1745601720.461494,3.414,2.169,3.462,26.614,-39.952,-156.132,0.26123,-0.26529,-0.27383,-0.88672
1745601720.4624898,3.414,2.169,3.462,26.57,-40.232,-156.105,0.26602,-0.28052,-0.2804,-0.87851
1745601720.4634902,2.188,1.202,2.576,26.428,-40.644,-156.017,0.26602,-0.28052,-0.2804,-0.87851
1745601720.4910045,2.188,1.202,2.576,26.279,-41.05,-155.923,0.26602,-0.28052,-0.2804,-0.87851
1745601720.4931085,0.747,-0.029,1.154,26.005,-41.622,-155.671,0.26602,-0.28052,-0.2804,-0.87851
1745601720.4940095,0.747,-0.029,1.154,25.719,-42.182,-155.407,0.26602,-0.28052,-0.2804,-0.87851
1745601720.495015,-2.116,-2.073,-1.073,25.225,-43.028,-154.891,0.26602,-0.28052,-0.2804,-0.87851
1745601720.5211976,-2.116,-2.073,-1.073,24.708,-43.863,-154.341,0.26602,-0.28052,-0.2804,-0.87851
1745601720.5231986,-4.051,-4.386,-2.715,23.703,-45.038,-153.298,0.26602,-0.28052,-0.2804,-0.87851
1745601720.5242052,-4.051,-4.386,-2.715,22.599,-46.181,-152.166,0.26602,-0.28052,-0.2804,-0.87851
1745601720.5262063,-5.492,-7.178,-5.085,20.55,-47.609,-150.007,0.26602,-0.28052,-0.2804,-0.87851
1745601720.5515385,-5.492,-7.178,-5.085,18.083,-48.994,-147.491,0.26602,-0.28052,-0.2804,-0.87851
1745601720.598543,-13.087,-23.233,-15.237,14.084,-50.718,-143.201,0.26602,-0.28052,-0.2804,-0.87851
1745601720.599546,-52.347,-92.943,-60.947,9.728,-52.427,-138.587,0.26602,-0.28052,-0.2804,-0.87851
1745601720.6015406,-7.882,-17.832,-6.852,3.34,-53.696,-131.638,0.26602,-0.28052,-0.2804,-0.87851
1745601720.611532,-7.882,-17.832,-6.852,-3.4,-54.454,-124.343,0.26602,-0.28052,-0.2804,-0.87851
1745601720.6125314,-6.56,-27.739,-4.152,-12.014,-54.349,-114.884,0.26602,-0.28052,-0.2804,-0.87851
1745601720.613534,-6.56,-27.739,-4.152,-20.33,-53.405,-105.727,0.26602,-0.28052,-0.2804,-0.87851
1745601720.61453,-3.093,-39.27,-3.074,-29.383,-50.922,-95.482,0.26602,-0.28052,-0.2804,-0.87851
1745601720.6405354,-3.093,-39.27,-3.074,-37.068,-47.543,-86.6,0.26602,-0.28052,-0.2804,-0.87851
1745601720.6415372,0.287,-48.569,-0.417,-44.16,-42.649,-78.14,0.26602,-0.28052,-0.2804,-0.87851
1745601720.6425378,0.287,-48.569,-0.417,-49.713,-37.145,-71.18,0.26602,-0.28052,-0.2804,-0.87851
1745601720.6425378,0.713,-60.482,-0.469,-54.745,-30.597,-64.781,0.62146,-0.49219,-0.00308,-0.60944
1745601720.671037,0.713,-60.482,-0.469,-58.623,-23.698,-59.453,0.62146,-0.49219,-0.00308,-0.60944
1745601720.705679,-3.127,-75.226,4.061,-62.325,-16.359,-54.322,0.62146,-0.49219,-0.00308,-0.60944
1745601720.705679,-3.127,-75.226,4.061,-65.209,-8.795,-49.856,0.62146,-0.49219,-0.00308,-0.60944
1745601720.7066789,-0.077,-89.06,7.044,-67.538,-1.511,-44.67,0.62146,-0.49219,-0.00308,-0.60944
1745601720.7304642,-0.077,-89.06,7.044,-69.186,5.905,-39.787,0.62146,-0.49219,-0.00308,-0.60944
1745601720.7304642,8.011,-94.494,6.713,-69.434,11.964,-33.283,0.62146,-0.49219,-0.00308,-0.60944
1745601720.7314699,8.011,-94.494,6.713,-68.956,17.968,-26.647,0.62146,-0.49219,-0.00308,-0.60944
1745601720.7324667,16.218,-95.754,11.468,-66.105,21.868,-18.968,0.62146,-0.49219,-0.00308,-0.60944
1745601720.7604852,16.218,-95.754,11.468,-62.644,25.334,-10.904,0.62146,-0.49219,-0.00308,-0.60944
1745601720.7614887,33.016,-79.013,5.488,-57.788,28.251,-4.614,0.62146,-0.49219,-0.00308,-0.60944
1745601720.7624934,33.016,-79.013,5.488,-52.487,30.63,2.076,0.62146,-0.49219,-0.00308,-0.60944
1745601720.7634923,27.936,-65.673,8.959,-47.225,34.003,6.96,0.62146,-0.49219,-0.00308,-0.60944
1745601720.7912712,27.936,-65.673,8.959,-41.435,36.925,12.393,0.62146,-0.49219,-0.00308,-0.60944
1745601720.8198185,25.23,-56.676,7.245,-35.261,40.084,17.825,0.62146,-0.49219,-0.00308,-0.60944
1745601720.8208244,25.23,-56.676,7.245,-28.455,42.704,23.923,0.86838,-0.3317,0.27856,0.24127
1745601720.821831,25.57,-46.72,4.855,-21.495,44.522,30.35,0.86838,-0.3317,0.27856,0.24127
1745601720.851404,25.57,-46.72,4.855,-14.134,45.714,37.2,0.86838,-0.3317,0.27856,0.24127
1745601720.8524172,30.181,-40.95,-1.489,-6.949,46.714,44.187,0.86838,-0.3317,0.27856,0.24127
1745601720.8544092,30.181,-40.95,-1.489,0.412,47.06,51.372,0.86838,-0.3317,0.27856,0.24127
1745601720.8544092,34.285,-34.031,-3.156,7.635,46.873,58.694,0.86838,-0.3317,0.27856,0.24127
1745601720.9115567,34.285,-34.031,-3.156,14.661,46.038,65.847,0.86838,-0.3317,0.27856,0.24127
1745601720.9635653,28.084,-24.541,-6.57,20.506,44.324,71.246,0.86838,-0.3317,0.27856,0.24127
1745601720.96457,28.084,-24.541,-6.57,25.895,42.231,76.207,0.86838,-0.3317,0.27856,0.24127
1745601720.9655604,25.924,-15.198,-8.107,29.619,39.732,78.662,0.86838,-0.3317,0.27856,0.24127
1745601720.9665554,25.924,-15.198,-8.107,33.052,37.117,80.821,0.86838,-0.3317,0.27856,0.24127
1745601720.9675548,27.227,-5.325,-8.681,35.986,35.403,82.425,0.86838,-0.3317,0.27856,0.24127
1745601720.9675548,27.227,-5.325,-8.681,38.782,33.624,83.875,0.86838,-0.3317,0.27856,0.24127
1745601720.9685555,20.207,3.869,-9.515,41.061,32.531,85.391,0.86838,-0.3317,0.27856,0.24127
1745601720.9705596,20.207,3.869,-9.515,43.281,31.399,86.836,0.86838,-0.3317,0.27856,0.24127
1745601720.9715588,16.927,8.696,-8.758,44.846,30.641,88.215,0.86838,-0.3317,0.27856,0.24127
1745601720.9715588,16.927,8.696,-8.758,47.774,29.29,90.555,0.86838,-0.3317,0.27856,0.24127
1745601720.972558,14.087,7.441,-7.489,50.12,28.087,92.675,0.86838,-0.3317,0.27856,0.24127
1745601721.0013027,14.087,7.441,-7.489,52.372,26.79,94.719,0.86838,-0.3317,0.27856,0.24127
1745601721.0013027,10.214,12.043,-6.584,54.113,25.505,96.268,0.86838,-0.3317,0.27856,0.24127
1745601721.0023036,10.214,12.043,-6.584,55.783,24.17,97.745,0.86838,-0.3317,0.27856,0.24127
1745601721.003304,7.345,11.334,-4.769,56.931,22.994,98.608,0.86838,-0.3317,0.27856,0.24127
1745601721.0913863,7.345,11.334,-4.769,58.035,21.791,99.426,0.86838,-0.3317,0.27856,0.24127
1745601721.1207447,7.355,11.612,-2.734,58.854,20.819,100.058,0.6217,0.18585,0.47086,0.5976
1745601721.1213894,7.355,11.612,-2.734,59.639,19.836,100.668,0.6217,0.18585,0.47086,0.5976
1745601721.1223898,5.306,11.085,-0.177,60.2,19.204,101.245,0.6217,0.18585,0.47086,0.5976
1745601721.123391,5.306,11.085,-0.177,60.738,18.578,101.81,0.6217,0.18585,0.47086,0.5976
1745601721.1243908,2.241,10.372,1.293,61.177,18.193,102.349,0.6217,0.18585,0.47086,0.5976
1745601721.1243908,2.241,10.372,1.293,61.6,17.825,102.881,0.6217,0.18585,0.47086,0.5976
1745601721.1253853,2.184,9.907,2.677,61.946,17.633,103.469,0.6217,0.18585,0.47086,0.5976
1745601721.1263905,2.184,9.907,2.677,62.276,17.457,104.062,0.6217,0.18585,0.47086,0.5976
1745601721.1273873,0.306,8.614,3.682,62.556,17.413,104.617,0.6217,0.18585,0.47086,0.5976
1745601721.1273873,0.306,8.614,3.682,62.814,17.391,105.189,0.6217,0.18585,0.47086,0.5976
1745601721.1283846,-1.566,8.681,3.821,62.99,17.435,105.59,0.6217,0.18585,0.47086,0.5976
1745601721.1825426,-1.566,8.681,3.821,63.144,17.507,106.007,0.6217,0.18585,0.47086,0.5976
1745601721.1831884,-1.753,9.519,4.899,63.226,17.628,106.381,0.6217,0.18585,0.47086,0.5976
1745601721.1841936,-1.753,9.519,4.899,63.287,17.781,106.771,0.6217,0.18585,0.47086,0.5976
1745601721.185194,-2.193,8.399,5.444,63.336,18.007,107.287,0.6217,0.18585,0.47086,0.5976
1745601721.2112195,-2.193,8.399,5.444,63.369,18.254,107.814,0.56332,0.19827,0.49756,0.62903
1745601721.2572167,-3.237,8.159,5.114,63.375,18.501,108.314,0.56332,0.19827,0.49756,0.62903
1745601721.258216,-3.433,6.895,4.539,63.342,18.759,108.699,0.56332,0.19827,0.49756,0.62903
1745601721.258216,-3.433,6.895,4.539,63.27,19.023,108.962,0.56332,0.19827,0.49756,0.62903
1745601721.271186,-4.511,7.183,4.798,63.155,19.27,109.138,0.56332,0.19827,0.49756,0.62903
1745601721.2721844,-4.511,7.183,4.798,62.985,19.501,109.226,0.56332,0.19827,0.49756,0.62903
1745601721.2721844,-3.572,7.451,5.741,62.798,19.737,109.314,0.56332,0.19827,0.49756,0.62903
1745601721.2731898,-3.572,7.451,5.741,62.584,19.973,109.402,0.56332,0.19827,0.49756,0.62903
1745601721.301504,-4.592,6.464,5.804,62.386,20.253,109.589,0.56332,0.19827,0.49756,0.62903
1745601721.3024964,-4.592,6.464,5.804,62.199,20.572,109.863,0.56332,0.19827,0.49756,0.62903
1745601721.3034964,-5.526,5.866,5.65,62.007,20.885,110.138,0.56332,0.19827,0.49756,0.62903
1745601721.304496,-5.526,5.866,5.65,61.809,21.187,110.407,0.56332,0.19827,0.49756,0.62903
1745601721.3315547,-6.048,5.54,5.21,61.589,21.456,110.599,0.56332,0.19827,0.49756,0.62903
1745601721.4106936,-6.048,5.54,5.21,61.348,21.693,110.715,0.56332,0.19827,0.49756,0.62903
1745601721.411694,-4.875,6.507,5.981,61.051,21.934,110.825,0.56332,0.19827,0.49756,0.62903
1745601721.411694,-4.875,6.507,5.981,60.716,22.181,110.934,0.55981,0.14624,0.50311,0.64188
1745601721.412693,-5.904,5.703,6.603,60.397,22.456,111.165,0.55981,0.14624,0.50311,0.64188
1745601721.4137,-5.904,5.703,6.603,60.106,22.769,111.522,0.55981,0.14624,0.50311,0.64188
1745601721.4137,-7.178,5.732,6.627,59.826,23.066,111.912,0.55981,0.14624,0.50311,0.64188
1745601721.4146898,-7.178,5.732,6.627,59.551,23.34,112.335,0.55981,0.14624,0.50311,0.64188
1745601721.4206934,-6.531,4.98,6.46,59.271,23.588,112.698,0.55981,0.14624,0.50311,0.64188
1745601721.4206934,-6.531,4.98,6.46,58.98,23.807,113.0,0.55981,0.14624,0.50311,0.64188
1745601721.4216902,-7.068,4.942,6.517,58.689,24.016,113.264,0.55981,0.14624,0.50311,0.64188
1745601721.4216902,-7.068,4.942,6.517,58.387,24.225,113.489,0.55981,0.14624,0.50311,0.64188
1745601721.4509814,-7.269,5.21,6.675,58.096,24.406,113.698,0.55981,0.14624,0.50311,0.64188
1745601721.4917078,-7.269,5.21,6.675,57.805,24.571,113.901,0.55981,0.14624,0.50311,0.64188
1745601721.4917078,-7.226,5.775,6.905,57.53,24.725,114.137,0.55981,0.14624,0.50311,0.64188
1745601721.4927094,-7.226,5.775,6.905,57.272,24.862,114.417,0.55981,0.14624,0.50311,0.64188
1745601721.4937093,-7.345,5.871,7.01,57.025,24.972,114.725,0.55981,0.14624,0.50311,0.64188
1745601721.4947069,-7.345,5.871,7.01,56.783,25.054,115.06,0.55981,0.14624,0.50311,0.64188
1745601721.495717,-7.096,5.44,7.058,56.547,25.098,115.378,0.55981,0.14624,0.50311,0.64188
1745601721.495717,-7.096,5.44,7.058,56.31,25.093,115.67,0.55981,0.14624,0.50311,0.64188
1745601721.541824,-6.455,5.449,7.025,56.074,25.065,115.911,0.55981,0.14624,0.50311,0.64188
1745601721.5428338,-6.455,5.449,7.025,55.844,25.005,116.109,0.55981,0.14624,0.50311,0.64188
1745601721.5438392,-5.971,5.444,7.168,55.629,24.928,116.29,0.55981,0.14624,0.50311,0.64188
1745601721.544834,-5.971,5.444,7.168,55.432,24.829,116.455,0.55981,0.14624,0.50311,0.64188
1745601721.5717304,-5.622,5.191,7.13,55.261,24.747,116.62,0.55981,0.14624,0.50311,0.64188
1745601721.5997243,-5.622,5.191,7.13,55.113,24.664,116.79,0.55981,0.14624,0.50311,0.64188
1745601721.601376,-5.291,5.722,6.68,54.981,24.609,116.971,0.55981,0.14624,0.50311,0.64188
1745601721.60237,-5.291,5.722,6.68,54.866,24.571,117.158,0.53629,0.07401,0.48294,0.68814
1745601721.6033814,-5.325,5.885,6.479,54.772,24.565,117.389,0.53629,0.07401,0.48294,0.68814
1745601721.6043806,-5.325,5.885,6.479,54.706,24.593,117.664,0.53629,0.07401,0.48294,0.68814
1745601721.6053705,-5.085,5.88,6.191,54.657,24.609,117.944,0.53629,0.07401,0.48294,0.68814
1745601721.6063716,-5.085,5.88,6.191,54.63,24.631,118.235,0.53629,0.07401,0.48294,0.68814
1745601721.660209,-4.707,5.737,5.765,54.597,24.648,118.488,0.53629,0.07401,0.48294,0.68814
1745601721.6612113,-4.707,5.737,5.765,54.558,24.67,118.713,0.53629,0.07401,0.48294,0.68814
1745601721.6622105,-5.037,6.158,5.401,54.509,24.686,118.872,0.53629,0.07401,0.48294,0.68814
1745601721.6622105,-5.037,6.158,5.401,54.443,24.703,118.965,0.53629,0.07401,0.48294,0.68814
1745601721.6912236,-4.626,6.048,5.516,54.371,24.714,119.02,0.53629,0.07401,0.48294,0.68814
1745601721.7392175,-4.626,6.048,5.516,54.289,24.725,119.042,0.53629,0.07401,0.48294,0.68814
1745601721.7392175,-4.573,6.029,5.488,54.229,24.758,119.075,0.53629,0.07401,0.48294,0.68814
1745601721.7402122,-4.573,6.029,5.488,54.185,24.813,119.125,0.53629,0.07401,0.48294,0.68814
1745601721.7402122,-4.966,6.105,5.167,54.146,24.884,119.174,0.53629,0.07401,0.48294,0.68814
1745601721.741214,-4.966,6.105,5.167,54.113,24.966,119.229,0.53629,0.07401,0.48294,0.68814
1745601721.7422144,-4.937,6.239,5.071,54.075,25.043,119.262,0.53629,0.07401,0.48294,0.68814
1745601721.743212,-4.937,6.239,5.071,54.025,25.109,119.268,0.53629,0.07401,0.48294,0.68814
1745601721.7815764,-4.98,6.158,5.191,53.965,25.181,119.262,0.53629,0.07401,0.48294,0.68814
1745601721.7822216,-4.98,6.158,5.191,53.904,25.252,119.246,0.53629,0.07401,0.48294,0.68814
1745601721.784221,-5.152,6.282,5.095,53.833,25.323,119.224,0.53629,0.07401,0.48294,0.68814
1745601721.7855809,-5.152,6.282,5.095,53.762,25.4,119.191,0.53629,0.07401,0.48294,0.68814
1745601721.8115396,-5.224,6.187,5.133,53.685,25.483,119.163,0.52609,0.05408,0.47964,0.7001
1745601721.8585281,-5.224,6.187,5.133,53.608,25.576,119.152,0.52609,0.05408,0.47964,0.7001
1745601721.8595328,-5.406,6.11,5.344,53.525,25.67,119.147,0.52609,0.05408,0.47964,0.7001
1745601721.8595328,-5.406,6.11,5.344,53.448,25.774,119.152,0.52609,0.05408,0.47964,0.7001
1745601721.8605375,-5.478,6.024,5.397,53.372,25.878,119.152,0.52609,0.05408,0.47964,0.7001
1745601721.8615334,-5.478,6.024,5.397,53.295,25.988,119.152,0.52609,0.05408,0.47964,0.7001
1745601721.862534,-5.569,5.866,5.488,53.212,26.098,119.152,0.52609,0.05408,0.47964,0.7001
1745601721.862534,-5.569,5.866,5.488,53.124,26.213,119.152,0.52609,0.05408,0.47964,0.7001
1745601721.901259,-5.722,5.794,5.468,53.031,26.329,119.147,0.52609,0.05408,0.47964,0.7001
1745601721.9022672,-2.859,2.897,2.734,52.938,26.439,119.141,0.52609,0.05408,0.47964,0.7001
1745601721.9042609,-5.531,5.732,5.602,52.839,26.554,119.136,0.52609,0.05408,0.47964,0.7001
1745601721.9052596,-5.531,5.732,5.602,52.734,26.669,119.13,0.52609,0.05408,0.47964,0.7001
1745601721.931541,-5.942,5.574,5.746,52.63,26.801,119.136,0.52609,0.05408,0.47964,0.7001
1745601721.959531,-5.942,5.574,5.746,52.537,26.938,119.152,0.52609,0.05408,0.47964,0.7001
1745601721.9605331,-6.134,5.583,5.751,52.438,27.065,119.163,0.52609,0.05408,0.47964,0.7001
1745601721.9615386,-6.134,5.583,5.751,52.344,27.175,119.163,0.52609,0.05408,0.47964,0.7001
1745601721.9625394,-5.986,5.665,5.622,52.245,27.279,119.152,0.52609,0.05408,0.47964,0.7001
1745601721.9635427,-5.986,5.665,5.622,52.147,27.383,119.13,0.52609,0.05408,0.47964,0.7001
1745601721.9635427,-6.302,5.626,5.641,52.042,27.477,119.103,0.53174,0.03296,0.47586,0.69971
1745601721.9645374,-6.302,5.626,5.641,51.932,27.554,119.075,0.53174,0.03296,0.47586,0.69971
1745601722.0205438,-6.187,5.392,5.918,51.817,27.631,119.042,0.53174,0.03296,0.47586,0.69971
1745601722.0205438,-6.187,5.392,5.918,51.702,27.697,119.009,0.53174,0.03296,0.47586,0.69971
1745601722.0215383,-6.302,5.531,5.914,51.603,27.757,118.993,0.53174,0.03296,0.47586,0.69971
1745601722.0225403,-6.302,5.531,5.914,51.515,27.817,118.993,0.53174,0.03296,0.47586,0.69971
