timestamp,AccX,AccY,AccZ,AngX,AngY,AngZ,AsX,AsY,AsZ,Q0,Q1,Q2,Q3
1745851468.9940627,-0.436,-0.771,9.72,-2.28,2.994,-42.358,0.93201,-0.00854,0.03064,-0.3609
1745851469.0258722,-0.737,-0.646,9.946,-2.285,2.999,-42.341,0.93201,-0.00854,0.03064,-0.3609
1745851469.0268848,-0.737,-0.646,9.946,-2.285,2.999,-42.319,0.93201,-0.00854,0.03064,-0.3609
1745851469.0278869,-0.627,-0.579,10.017,-2.285,3.021,-42.314,0.93201,-0.00854,0.03064,-0.3609
1745851469.0278869,-0.627,-0.579,10.017,-2.285,3.071,-42.33,0.93201,-0.00854,0.03064,-0.3609
1745851469.028887,-0.484,-0.584,10.008,-2.296,3.098,-42.336,0.93201,-0.00854,0.03064,-0.3609
1745851469.0298848,-0.484,-0.584,10.008,-2.307,3.098,-42.336,0.93201,-0.00854,0.03064,-0.3609
1745851469.0298848,-0.737,-0.484,9.85,-2.335,3.082,-42.347,0.93216,-0.009,0.0325,-0.36038
1745851469.0466611,-0.737,-0.484,9.85,-2.368,3.038,-42.369,0.93216,-0.009,0.0325,-0.36038
1745851469.0466611,-0.67,-0.441,9.965,-2.401,2.994,-42.424,0.93216,-0.009,0.0325,-0.36038
1745851469.0592353,-0.67,-0.441,9.965,-2.428,2.95,-42.523,0.93216,-0.009,0.0325,-0.36038
1745851469.060255,-0.402,-0.22,10.171,-2.455,2.911,-42.616,0.93216,-0.009,0.0325,-0.36038
1745851469.1126273,-0.402,-0.22,10.171,-2.483,2.878,-42.704,0.93216,-0.009,0.0325,-0.36038
1745851469.1715329,-0.407,-0.503,10.046,-2.516,2.851,-42.797,0.93216,-0.009,0.0325,-0.36038
1745851469.1725345,-0.407,-0.503,10.046,-2.56,2.84,-42.891,0.93216,-0.009,0.0325,-0.36038
1745851469.1725345,-0.436,-0.627,9.969,-2.571,2.834,-42.946,0.93216,-0.009,0.0325,-0.36038
1745851469.173534,-0.436,-0.627,9.969,-2.582,2.829,-43.0,0.93216,-0.009,0.0325,-0.36038
1745851469.174536,-0.426,-0.412,10.003,-2.571,2.834,-43.0,0.93216,-0.009,0.0325,-0.36038
1745851469.174536,-0.426,-0.412,10.003,-2.56,2.845,-43.0,0.93216,-0.009,0.0325,-0.36038
1745851469.1755319,-0.632,-0.412,10.032,-2.549,2.878,-43.011,0.93216,-0.009,0.0325,-0.36038
1745851469.1775372,-0.632,-0.412,10.032,-2.538,2.911,-43.022,0.93216,-0.009,0.0325,-0.36038
1745851469.1775372,-0.469,-0.479,9.969,-2.527,2.933,-43.022,0.93216,-0.009,0.0325,-0.36038
1745851469.1785388,-0.469,-0.479,9.969,-2.516,2.955,-43.028,0.93216,-0.009,0.0325,-0.36038
1745851469.1785388,-0.704,-0.603,9.902,-2.505,2.966,-43.006,0.93216,-0.009,0.0325,-0.36038
1745851469.227944,-0.704,-0.603,9.902,-2.488,2.977,-42.99,0.93216,-0.009,0.0325,-0.36038
1745851469.2611618,-0.666,-0.632,9.84,-2.45,2.977,-42.968,0.93216,-0.009,0.0325,-0.36038
1745851469.2699153,-0.666,-0.632,9.84,-2.411,2.983,-42.946,0.93216,-0.009,0.0325,-0.36038
1745851469.2709444,-0.627,-0.421,9.998,-2.379,2.977,-42.929,0.93216,-0.009,0.0325,-0.36038
1745851469.2719336,-0.627,-0.421,9.998,-2.351,2.972,-42.907,0.93027,-0.00983,0.0318,-0.3652
1745851469.2729375,-0.594,-0.426,9.883,-2.34,2.983,-42.951,0.93027,-0.00983,0.0318,-0.3652
1745851469.2739372,-0.594,-0.426,9.883,-2.335,2.994,-42.995,0.93027,-0.00983,0.0318,-0.3652
1745851469.2739372,-0.235,-0.417,9.792,-2.318,2.988,-43.011,0.93027,-0.00983,0.0318,-0.3652
1745851469.329051,-0.235,-0.417,9.792,-2.302,2.983,-43.028,0.93027,-0.00983,0.0318,-0.3652
1745851469.3771286,-0.302,-0.335,10.003,-2.285,2.972,-43.011,0.93027,-0.00983,0.0318,-0.3652
1745851469.3771286,-0.302,-0.335,10.003,-2.269,2.955,-42.99,0.93027,-0.00983,0.0318,-0.3652
1745851469.3771286,-0.326,-0.383,10.036,-2.269,2.966,-42.99,0.93027,-0.00983,0.0318,-0.3652
1745851469.3771286,-0.326,-0.383,10.036,-2.263,2.977,-42.995,0.93027,-0.00983,0.0318,-0.3652
1745851469.3771286,-0.584,-0.421,10.065,-2.269,2.988,-42.99,0.93027,-0.00983,0.0318,-0.3652
1745851469.3836565,-0.584,-0.421,10.065,-2.274,2.999,-42.99,0.93027,-0.00983,0.0318,-0.3652
1745851469.3850338,-0.737,-0.536,10.041,-2.28,3.005,-43.0,0.93027,-0.00983,0.0318,-0.3652
1745851469.3876786,-0.737,-0.536,10.041,-2.285,3.01,-43.011,0.93027,-0.00983,0.0318,-0.3652
1745851469.3876786,-0.737,-0.642,9.989,-2.285,3.005,-43.028,0.93027,-0.00983,0.0318,-0.3652
1745851469.3876786,-0.737,-0.642,9.989,-2.291,2.999,-43.05,0.93027,-0.00983,0.0318,-0.3652
1745851469.3876786,-0.747,-0.455,10.094,-2.291,3.027,-43.099,0.93027,-0.00983,0.0318,-0.3652
1745851469.4447107,-0.747,-0.455,10.094,-2.296,3.054,-43.154,0.93027,-0.00983,0.0318,-0.3652
1745851469.4760032,-0.412,-0.441,9.955,-2.302,3.087,-43.198,0.93027,-0.00983,0.0318,-0.3652
1745851469.4770253,-0.412,-0.441,9.955,-2.313,3.12,-43.242,0.93027,-0.00983,0.0318,-0.3652
1745851469.4790802,-0.493,-0.493,9.926,-2.296,3.142,-43.248,0.93027,-0.00983,0.0318,-0.3652
1745851469.4790802,-0.493,-0.493,9.926,-2.285,3.159,-43.248,0.92923,-0.00845,0.03293,-0.36777
1745851469.4803426,-0.464,-0.512,10.017,-2.269,3.17,-43.237,0.92923,-0.00845,0.03293,-0.36777
1745851469.4810205,-0.464,-0.512,10.017,-2.247,3.181,-43.226,0.92923,-0.00845,0.03293,-0.36777
1745851469.482026,-0.493,-0.503,10.032,-2.247,3.181,-43.231,0.92923,-0.00845,0.03293,-0.36777
1745851469.5085306,-0.493,-0.503,10.032,-2.247,3.175,-43.231,0.92923,-0.00845,0.03293,-0.36777
1745851469.5095296,-0.584,-0.484,10.036,-2.252,3.181,-43.259,0.92923,-0.00845,0.03293,-0.36777
1745851469.5105312,-0.584,-0.484,10.036,-2.258,3.181,-43.292,0.92923,-0.00845,0.03293,-0.36777
1745851469.5125303,-0.56,-0.421,10.065,-2.28,3.197,-43.358,0.92923,-0.00845,0.03293,-0.36777
1745851469.568501,-0.56,-0.421,10.065,-2.302,3.214,-43.423,0.92923,-0.00845,0.03293,-0.36777
1745851469.6231163,-0.632,-0.431,10.036,-2.318,3.197,-43.473,0.92923,-0.00845,0.03293,-0.36777
1745851469.6237628,-0.632,-0.431,10.036,-2.335,3.186,-43.522,0.92923,-0.00845,0.03293,-0.36777
1745851469.6251185,-0.685,-0.421,9.922,-2.34,3.142,-43.544,0.92923,-0.00845,0.03293,-0.36777
1745851469.6267676,-0.685,-0.421,9.922,-2.351,3.104,-43.561,0.92923,-0.00845,0.03293,-0.36777
1745851469.6267676,-0.632,-0.421,9.835,-2.34,3.093,-43.599,0.92923,-0.00845,0.03293,-0.36777
1745851469.6287603,-0.632,-0.421,9.835,-2.335,3.082,-43.638,0.92923,-0.00845,0.03293,-0.36777
1745851469.6287603,-0.532,-0.484,9.859,-2.324,3.06,-43.654,0.92923,-0.00845,0.03293,-0.36777
1745851469.6297588,-0.532,-0.484,9.859,-2.318,3.038,-43.671,0.92923,-0.00845,0.03293,-0.36777
1745851469.6307552,-0.603,-0.479,9.682,-2.335,3.005,-43.693,0.92923,-0.00845,0.03293,-0.36777
1745851469.6307552,-0.603,-0.479,9.682,-2.346,2.977,-43.709,0.92923,-0.00845,0.03293,-0.36777
1745851469.6317518,-0.565,-0.455,9.29,-2.357,2.961,-43.753,0.92923,-0.00845,0.03293,-0.36777
1745851469.6886516,-0.565,-0.455,9.29,-2.368,2.939,-43.797,0.92923,-0.00845,0.03293,-0.36777
1745851469.7156463,-0.225,-0.369,9.256,-2.368,2.922,-43.841,0.92923,-0.00845,0.03293,-0.36777
1745851469.7166483,-0.225,-0.369,9.256,-2.362,2.906,-43.879,0.92923,-0.00845,0.03293,-0.36777
1745851469.7186503,-0.12,-0.397,9.165,-2.379,2.939,-43.94,0.92923,-0.00845,0.03293,-0.36777
1745851469.720011,-0.12,-0.397,9.165,-2.395,2.966,-44.006,0.92691,-0.00967,0.03171,-0.37369
1745851469.7206464,-0.129,-0.455,8.897,-2.406,3.016,-44.077,0.92691,-0.00967,0.03171,-0.37369
1745851469.7206464,-0.129,-0.455,8.897,-2.417,3.054,-44.149,0.92691,-0.00967,0.03171,-0.37369
1745851469.7220047,-0.192,-0.378,8.897,-2.411,3.087,-44.171,0.92691,-0.00967,0.03171,-0.37369
1745851469.748553,-0.192,-0.378,8.897,-2.401,3.115,-44.193,0.92691,-0.00967,0.03171,-0.37369
1745851469.7495506,-0.172,-0.278,8.95,-2.395,3.175,-44.236,0.92691,-0.00967,0.03171,-0.37369
1745851469.7515514,-0.172,-0.278,8.95,-2.39,3.235,-44.28,0.92691,-0.00967,0.03171,-0.37369
1745851469.7529106,-0.239,-0.632,8.595,-2.384,3.34,-44.357,0.92691,-0.00967,0.03171,-0.37369
1745851469.8094432,-0.239,-0.632,8.595,-2.379,3.439,-44.429,0.92691,-0.00967,0.03171,-0.37369
1745851469.8690422,-0.464,-0.814,8.294,-2.346,3.554,-44.506,0.92691,-0.00967,0.03171,-0.37369
1745851469.8696773,-0.464,-0.814,8.294,-2.313,3.664,-44.577,0.92691,-0.00967,0.03171,-0.37369
1745851469.870675,-0.407,-0.651,8.442,-2.252,3.796,-44.681,0.92691,-0.00967,0.03171,-0.37369
1745851469.8716788,-0.407,-0.651,8.442,-2.197,3.928,-44.786,0.92691,-0.00967,0.03171,-0.37369
1745851469.8726752,-0.512,-0.843,8.15,-2.137,4.065,-44.874,0.92691,-0.00967,0.03171,-0.37369
1745851469.8736792,-0.512,-0.843,8.15,-2.076,4.202,-44.962,0.92691,-0.00967,0.03171,-0.37369
1745851469.8746817,-1.044,-1.192,7.436,-1.961,4.367,-45.088,0.92691,-0.00967,0.03171,-0.37369
1745851469.8746817,-1.044,-1.192,7.436,-1.851,4.532,-45.203,0.92691,-0.00967,0.03171,-0.37369
1745851469.8756773,-1.006,-1.231,6.895,-1.686,4.724,-45.379,0.92691,-0.00967,0.03171,-0.37369
1745851469.8766782,-1.006,-1.231,6.895,-1.516,4.916,-45.549,0.92691,-0.00967,0.03171,-0.37369
1745851469.8776906,-0.493,-0.891,7.116,-1.274,5.164,-45.758,0.92691,-0.00967,0.03171,-0.37369
1745851469.9297764,-0.493,-0.891,7.116,-1.033,5.416,-45.967,0.92691,-0.00967,0.03171,-0.37369
1745851469.9610932,-0.397,0.172,7.887,-0.797,5.729,-46.159,0.92691,-0.00967,0.03171,-0.37369
1745851469.9621012,-0.397,0.172,7.887,-0.566,6.042,-46.346,0.92691,-0.00967,0.03171,-0.37369
1745851469.9630983,-0.713,0.905,7.973,-0.363,6.443,-46.555,0.92691,-0.00967,0.03171,-0.37369
1745851469.9641147,-0.713,0.905,7.973,-0.154,6.844,-46.758,0.91669,0.02084,0.05411,-0.39523
1745851469.9641147,-0.996,1.561,7.35,0.0,7.185,-46.956,0.91669,0.02084,0.05411,-0.39523
1745851469.9650967,-0.996,1.561,7.35,0.159,7.526,-47.148,0.91669,0.02084,0.05411,-0.39523
1745851469.9660964,-1.14,1.757,7.829,0.302,7.773,-47.373,0.91669,0.02084,0.05411,-0.39523
1745851469.9873474,-1.14,1.757,7.829,0.45,8.031,-47.598,0.91669,0.02084,0.05411,-0.39523
1745851469.9886217,-0.857,1.432,8.586,0.621,8.394,-47.769,0.91669,0.02084,0.05411,-0.39523
1745851469.9893572,-0.857,1.432,8.586,0.797,8.756,-47.933,0.91669,0.02084,0.05411,-0.39523
1745851469.9893572,-1.336,1.705,8.538,0.939,9.256,-48.065,0.91669,0.02084,0.05411,-0.39523
1745851470.048507,-1.336,1.705,8.538,1.088,9.756,-48.186,0.91669,0.02084,0.05411,-0.39523
1745851470.095299,-1.633,2.567,8.825,1.159,10.366,-48.285,0.91669,0.02084,0.05411,-0.39523
1745851470.095299,-1.633,2.567,8.825,1.23,10.97,-48.384,0.91669,0.02084,0.05411,-0.39523
1745851470.095299,-2.083,1.911,8.471,1.324,11.58,-48.318,0.91669,0.02084,0.05411,-0.39523
1745851470.095299,-2.083,1.911,8.471,1.417,12.195,-48.246,0.91669,0.02084,0.05411,-0.39523
1745851470.095299,-2.437,1.805,9.117,1.604,12.706,-48.076,0.91669,0.02084,0.05411,-0.39523
1745851470.095299,-2.437,1.805,9.117,1.796,13.222,-47.9,0.91669,0.02084,0.05411,-0.39523
1745851470.1091905,-1.915,2.169,9.74,1.912,13.799,-47.686,0.91669,0.02084,0.05411,-0.39523
1745851470.1112213,-1.915,2.169,9.74,2.032,14.37,-47.466,0.91669,0.02084,0.05411,-0.39523
1745851470.1131225,-3.084,1.815,9.026,2.109,15.062,-47.214,0.91669,0.02084,0.05411,-0.39523
1745851470.1131225,-3.084,1.815,9.026,2.197,15.754,-46.961,0.91669,0.02084,0.05411,-0.39523
1745851470.1153455,-4.156,1.757,9.084,2.318,16.436,-46.67,0.91669,0.02084,0.05411,-0.39523
1745851470.1685026,-4.156,1.757,9.084,2.444,17.117,-46.373,0.91669,0.02084,0.05411,-0.39523
1745851470.1907134,-4.683,1.719,9.414,2.56,17.71,-46.06,0.91669,0.02084,0.05411,-0.39523
1745851470.1907134,-4.683,1.719,9.414,2.681,18.309,-45.747,0.91669,0.02084,0.05411,-0.39523
1745851470.1917083,-4.554,1.197,9.194,2.823,18.924,-45.461,0.91669,0.02084,0.05411,-0.39523
1745851470.1969543,-4.554,1.197,9.194,2.966,19.539,-45.17,0.90787,0.08594,0.14218,-0.38477
1745851470.1969543,-4.252,1.858,9.357,3.23,19.99,-44.72,0.90787,0.08594,0.14218,-0.38477
1745851470.1969543,-5.612,2.399,10.099,3.538,20.336,-44.176,0.90787,0.08594,0.14218,-0.38477
1745851470.1969543,-5.612,2.399,10.099,3.895,20.577,-43.539,0.90787,0.08594,0.14218,-0.38477
1745851470.227766,-5.76,2.883,10.602,4.246,20.874,-42.902,0.90787,0.08594,0.14218,-0.38477
1745851470.2297683,-5.76,2.883,10.602,4.598,21.215,-42.253,0.90787,0.08594,0.14218,-0.38477
1745851470.2307725,-6.402,2.801,10.884,4.845,21.632,-41.726,0.90787,0.08594,0.14218,-0.38477
1745851470.2317681,-6.402,2.801,10.884,4.982,22.126,-41.314,0.90787,0.08594,0.14218,-0.38477
1745851470.2891695,-6.235,2.571,10.649,5.087,22.549,-40.897,0.90787,0.08594,0.14218,-0.38477
1745851470.3275673,-6.235,2.571,10.649,5.147,22.901,-40.479,0.90787,0.08594,0.14218,-0.38477
1745851470.3275673,-6.694,2.389,10.913,5.268,23.148,-39.963,0.90787,0.08594,0.14218,-0.38477
1745851470.3275673,-6.694,2.389,10.913,5.449,23.307,-39.353,0.90787,0.08594,0.14218,-0.38477
1745851470.3275673,-5.933,2.567,10.472,5.652,23.483,-38.71,0.90787,0.08594,0.14218,-0.38477
1745851470.3275673,-5.933,2.567,10.472,5.883,23.676,-38.046,0.90787,0.08594,0.14218,-0.38477
1745851470.3400347,-5.076,2.897,10.63,6.119,23.879,-37.343,0.90787,0.08594,0.14218,-0.38477
1745851470.3410652,-5.076,2.897,10.63,6.372,24.093,-36.606,0.90787,0.08594,0.14218,-0.38477
1745851470.3459532,-6.172,2.897,11.286,6.575,24.252,-35.848,0.90787,0.08594,0.14218,-0.38477
1745851470.3459532,-6.172,2.897,11.286,6.74,24.357,-35.068,0.90787,0.08594,0.14218,-0.38477
1745851470.3459532,-6.924,2.892,11.205,6.888,24.461,-34.283,0.90787,0.08594,0.14218,-0.38477
1745851470.3459532,-6.924,2.892,11.205,7.026,24.565,-33.492,0.90787,0.08594,0.14218,-0.38477
1745851470.40873,-6.235,2.428,10.285,7.169,24.637,-32.695,0.90787,0.08594,0.14218,-0.38477
1745851470.4393306,-6.235,2.428,10.285,7.333,24.692,-31.888,0.93182,0.11859,0.18713,-0.28726
1745851470.4406912,-5.641,2.504,10.07,7.575,24.714,-31.009,0.93182,0.11859,0.18713,-0.28726
1745851470.4423296,-5.641,2.504,10.07,7.899,24.719,-30.059,0.93182,0.11859,0.18713,-0.28726
1745851470.4683564,-6.043,3.251,10.942,8.284,24.675,-29.048,0.93182,0.11859,0.18713,-0.28726
1745851470.4703484,-6.043,3.251,10.942,8.723,24.593,-27.982,0.93182,0.11859,0.18713,-0.28726
1745851470.471711,-6.115,3.496,11.31,9.119,24.51,-26.927,0.93182,0.11859,0.18713,-0.28726
1745851470.4723482,-6.115,3.496,11.31,9.465,24.434,-25.889,0.93182,0.11859,0.18713,-0.28726
1745851470.4743488,-6.081,3.414,11.554,9.75,24.39,-24.884,0.93182,0.11859,0.18713,-0.28726
1745851470.4753523,-6.081,3.414,11.554,9.97,24.379,-23.912,0.93182,0.11859,0.18713,-0.28726
1745851470.4763494,-6.479,2.753,11.08,10.162,24.329,-22.928,0.93182,0.11859,0.18713,-0.28726
1745851470.4773524,-6.479,2.753,11.08,10.333,24.247,-21.945,0.93182,0.11859,0.18713,-0.28726
1745851470.5288444,-6.517,2.337,11.076,10.519,24.131,-20.945,0.93182,0.11859,0.18713,-0.28726
1745851470.6239488,-6.517,2.337,11.076,10.728,23.994,-19.929,0.93182,0.11859,0.18713,-0.28726
1745851470.6239488,-5.813,2.461,11.056,10.975,23.835,-18.88,0.93182,0.11859,0.18713,-0.28726
1745851470.6239488,-5.813,2.461,11.056,11.277,23.659,-17.798,0.93182,0.11859,0.18713,-0.28726
1745851470.6249514,-6.34,2.792,11.363,11.596,23.401,-16.672,0.95914,0.12656,0.18665,-0.17056
1745851470.6249514,-6.34,2.792,11.363,11.942,23.066,-15.513,0.95914,0.12656,0.18665,-0.17056
1745851470.625951,-6.512,3.232,12.282,12.228,22.703,-14.414,0.95914,0.12656,0.18665,-0.17056
1745851470.625951,-26.058,12.933,49.143,12.464,22.308,-13.365,0.95914,0.12656,0.18665,-0.17056
1745851470.6269512,-5.416,3.51,12.234,12.662,21.896,-12.327,0.95914,0.12656,0.18665,-0.17056
1745851470.6269512,-5.416,3.51,12.234,12.821,21.467,-11.288,0.95914,0.12656,0.18665,-0.17056
1745851470.6279533,-5.416,3.697,12.737,12.92,21.006,-10.245,0.95914,0.12656,0.18665,-0.17056
1745851470.6279533,-5.416,3.697,12.737,12.958,20.517,-9.185,0.95914,0.12656,0.18665,-0.17056
1745851470.6474614,-4.937,2.691,11.914,12.936,20.045,-8.157,0.95914,0.12656,0.18665,-0.17056
1745851470.6819308,-4.937,2.691,11.914,12.849,19.589,-7.152,0.95914,0.12656,0.18665,-0.17056
1745851470.6819308,-4.635,1.575,11.813,12.816,19.083,-6.103,0.95914,0.12656,0.18665,-0.17056
1745851470.6829417,-4.635,1.575,11.813,12.832,18.523,-5.015,0.95914,0.12656,0.18665,-0.17056
1745851470.6829417,-5.521,1.053,12.483,12.876,17.897,-3.9,0.95914,0.12656,0.18665,-0.17056
1745851470.6839314,-5.521,1.053,12.483,12.947,17.194,-2.758,0.95914,0.12656,0.18665,-0.17056
1745851470.6839314,-5.923,0.215,12.306,12.964,16.425,-1.686,0.95914,0.12656,0.18665,-0.17056
1745851470.684932,-5.923,0.215,12.306,12.931,15.584,-0.692,0.95914,0.12656,0.18665,-0.17056
1745851470.7405167,-4.999,0.297,12.775,12.865,14.711,0.231,0.95914,0.12656,0.18665,-0.17056
1745851470.7405167,-4.999,0.297,12.775,12.772,13.799,1.088,0.95914,0.12656,0.18665,-0.17056
1745851470.7428124,-3.749,0.881,13.451,12.59,12.909,1.901,0.95914,0.12656,0.18665,-0.17056
1745851470.743847,-3.749,0.881,13.451,12.321,12.036,2.67,0.95914,0.12656,0.18665,-0.17056
1745851470.79916,-3.941,-0.622,12.541,11.948,11.212,3.395,0.95914,0.12656,0.18665,-0.17056
1745851470.827428,-3.941,-0.622,12.541,11.464,10.443,4.081,0.95914,0.12656,0.18665,-0.17056
1745851470.8284314,-4.563,-2.227,11.463,10.975,9.69,4.73,0.95914,0.12656,0.18665,-0.17056
1745851470.8294287,-4.563,-2.227,11.463,10.47,8.965,5.35,0.95914,0.12656,0.18665,-0.17056
1745851470.8314304,-3.615,-3.304,10.831,10.003,8.278,5.927,0.95914,0.12656,0.18665,-0.17056
1745851470.832427,-3.615,-3.304,10.831,9.564,7.63,6.46,0.95914,0.12656,0.18665,-0.17056
1745851470.8334365,-2.71,-3.85,10.046,9.245,6.993,6.971,0.95914,0.12656,0.18665,-0.17056
1745851470.8334365,-2.71,-3.85,10.046,9.047,6.367,7.465,0.95914,0.12656,0.18665,-0.17056
1745851470.858045,-1.341,-2.054,11.267,8.91,5.762,8.042,0.95914,0.12656,0.18665,-0.17056
1745851470.8603413,-1.341,-2.054,11.267,8.839,5.164,8.712,0.99344,0.07361,0.05304,0.06906
1745851470.8613424,-2.217,-1.537,11.598,8.674,4.598,9.349,0.99344,0.07361,0.05304,0.06906
1745851470.8623412,-2.217,-1.537,11.598,8.427,4.059,9.965,0.99344,0.07361,0.05304,0.06906
1745851470.8886626,-2.974,-2.145,11.353,8.113,3.477,10.459,0.99344,0.07361,0.05304,0.06906
1745851470.8903449,-2.974,-2.145,11.353,7.745,2.862,10.838,0.99344,0.07361,0.05304,0.06906
1745851470.8903449,-1.963,-2.533,9.888,7.35,2.214,11.113,0.99344,0.07361,0.05304,0.06906
1745851470.8914971,-1.963,-2.533,9.888,6.932,1.533,11.283,0.99344,0.07361,0.05304,0.06906
1745851470.9190419,0.163,-2.265,9.189,6.542,0.807,11.486,0.99344,0.07361,0.05304,0.06906
1745851470.9615421,0.163,-2.265,9.189,6.18,0.033,11.728,0.99344,0.07361,0.05304,0.06906
1745851470.9615421,1.24,-1.776,9.165,5.856,-0.676,12.019,0.99344,0.07361,0.05304,0.06906
1745851470.9615421,1.24,-1.776,9.165,5.559,-1.335,12.371,0.99344,0.07361,0.05304,0.06906
1745851470.978717,-0.819,-0.814,9.543,5.208,-1.895,12.739,0.99344,0.07361,0.05304,0.06906
1745851470.9792275,-0.819,-0.814,9.543,4.812,-2.346,13.123,0.99344,0.07361,0.05304,0.06906
1745851470.9792275,-3.002,-1.676,9.941,4.378,-2.785,13.37,0.99344,0.07361,0.05304,0.06906
1745851470.9792275,-3.002,-1.676,9.941,3.906,-3.214,13.475,0.99344,0.07361,0.05304,0.06906
1745851471.008086,-0.637,-2.519,7.853,3.45,-3.582,13.42,0.99344,0.07361,0.05304,0.06906
1745851471.0090816,-0.637,-2.519,7.853,3.01,-3.895,13.2,0.99344,0.07361,0.05304,0.06906
1745851471.0090816,0.939,-3.285,7.216,2.609,-4.312,12.991,0.99344,0.07361,0.05304,0.06906
1745851471.0112736,0.939,-3.285,7.216,2.241,-4.828,12.788,0.99252,0.02551,-0.03723,0.11295
1745851471.0388665,1.35,-2.289,8.351,1.895,-5.422,12.722,0.99252,0.02551,-0.03723,0.11295
1745851471.0804124,1.35,-2.289,8.351,1.566,-6.086,12.805,0.99252,0.02551,-0.03723,0.11295
1745851471.0804124,0.608,-2.322,8.265,1.198,-6.641,12.87,0.99252,0.02551,-0.03723,0.11295
1745851471.0804124,0.608,-2.322,8.265,0.791,-7.086,12.92,0.99252,0.02551,-0.03723,0.11295
1745851471.094475,0.517,-2.801,7.408,0.428,-7.465,12.914,0.99252,0.02551,-0.03723,0.11295
1745851471.094475,0.517,-2.801,7.408,0.104,-7.778,12.854,0.99252,0.02551,-0.03723,0.11295
1745851471.094475,-0.306,-2.887,8.183,-0.181,-8.152,12.722,0.99252,0.02551,-0.03723,0.11295
1745851471.094475,-0.306,-2.887,8.183,-0.439,-8.586,12.513,0.99252,0.02551,-0.03723,0.11295
1745851471.1285067,1.302,-2.763,7.345,-0.698,-9.058,12.178,0.99252,0.02551,-0.03723,0.11295
1745851471.1305027,1.302,-2.763,7.345,-0.956,-9.575,11.722,0.99252,0.02551,-0.03723,0.11295
1745851471.131504,3.041,-2.758,6.924,-1.192,-10.129,11.316,0.99252,0.02551,-0.03723,0.11295
1745851471.1325016,3.041,-2.758,6.924,-1.406,-10.734,10.97,0.99252,0.02551,-0.03723,0.11295
1745851471.1595037,3.232,-1.322,8.174,-1.648,-11.327,10.712,0.99252,0.02551,-0.03723,0.11295
1745851471.1885014,3.232,-1.322,8.174,-1.912,-11.898,10.541,0.99252,0.02551,-0.03723,0.11295
1745851471.189503,0.627,-1.566,8.519,-2.214,-12.36,10.283,0.99252,0.02551,-0.03723,0.11295
1745851471.1905034,0.627,-1.566,8.519,-2.538,-12.695,9.943,0.99252,0.02551,-0.03723,0.11295
1745851471.2187164,0.546,-2.911,7.317,-2.769,-12.969,9.492,0.99252,0.02551,-0.03723,0.11295
1745851471.2197142,0.546,-2.911,7.317,-2.906,-13.184,8.926,0.99017,-0.01538,-0.11545,0.07693
1745851471.2210648,2.14,-2.174,7.274,-2.966,-13.414,8.377,0.99017,-0.01538,-0.11545,0.07693
1745851471.221711,2.14,-2.174,7.274,-2.944,-13.667,7.828,0.99017,-0.01538,-0.11545,0.07693
1745851471.244597,2.844,-1.149,7.69,-2.911,-13.936,7.317,0.99017,-0.01538,-0.11545,0.07693
1745851471.244597,2.844,-1.149,7.69,-2.873,-14.216,6.844,0.99017,-0.01538,-0.11545,0.07693
1745851471.244597,2.184,-0.982,8.131,-2.862,-14.535,6.306,0.99017,-0.01538,-0.11545,0.07693
1745851471.244597,2.184,-0.982,8.131,-2.889,-14.886,5.702,0.99017,-0.01538,-0.11545,0.07693
1745851471.277949,3.084,-1.475,6.838,-2.906,-15.222,5.059,0.99017,-0.01538,-0.11545,0.07693
1745851471.3130474,3.084,-1.475,6.838,-2.922,-15.54,4.367,0.99017,-0.01538,-0.11545,0.07693
1745851471.3130474,2.614,-0.871,7.025,-2.823,-15.859,3.708,0.99017,-0.01538,-0.11545,0.07693
1745851471.3274956,2.614,-0.871,7.025,-2.725,-16.183,3.049,0.99017,-0.01538,-0.11545,0.07693
1745851471.33318,2.849,0.019,7.681,-2.587,-16.375,2.302,0.99017,-0.01538,-0.11545,0.07693
1745851471.33318,2.849,0.019,7.681,-2.439,-16.567,1.555,0.99017,-0.01538,-0.11545,0.07693
1745851471.33318,3.898,0.254,7.676,-2.258,-16.545,0.873,0.99017,-0.01538,-0.11545,0.07693
1745851471.33318,3.898,0.254,7.676,-2.065,-16.523,0.198,0.99017,-0.01538,-0.11545,0.07693
1745851471.3685272,3.232,1.001,8.26,-1.95,-16.556,-0.258,0.99017,-0.01538,-0.11545,0.07693
1745851471.3685272,3.232,1.001,8.26,-1.824,-16.589,-0.714,0.99017,-0.01538,-0.11545,0.07693
1745851471.369525,2.648,0.79,8.739,-1.84,-16.573,-1.379,0.99017,-0.01538,-0.11545,0.07693
1745851471.370529,2.648,0.79,8.739,-1.851,-16.556,-2.038,0.98926,-0.0181,-0.1438,-0.01709
1745851471.3945477,1.733,-1.36,6.699,-1.829,-16.573,-2.834,0.98926,-0.0181,-0.1438,-0.01709
1745851471.4456415,1.733,-1.36,6.699,-1.807,-16.584,-3.625,0.98926,-0.0181,-0.1438,-0.01709
1745851471.4476368,2.552,-1.245,6.598,-1.571,-16.842,-4.34,0.98926,-0.0181,-0.1438,-0.01709
1745851471.4486392,2.552,-1.245,6.598,-1.335,-17.1,-5.048,0.98926,-0.0181,-0.1438,-0.01709
1745851471.4575713,3.065,1.288,8.088,-1.044,-17.375,-5.724,0.98926,-0.0181,-0.1438,-0.01709
1745851471.4588003,3.065,1.288,8.088,-0.747,-17.655,-6.4,0.98926,-0.0181,-0.1438,-0.01709
1745851471.4594793,4.87,3.05,8.332,-0.5,-17.721,-7.053,0.98926,-0.0181,-0.1438,-0.01709
1745851471.460483,4.87,3.05,8.332,-0.236,-17.803,-7.701,0.98926,-0.0181,-0.1438,-0.01709
1745851471.4886556,5.018,3.472,8.341,-0.093,-17.814,-8.152,0.98926,-0.0181,-0.1438,-0.01709
1745851471.4896507,5.018,3.472,8.341,0.06,-17.842,-8.597,0.98926,-0.0181,-0.1438,-0.01709
1745851471.490648,3.361,3.625,9.783,0.143,-17.831,-9.157,0.98926,-0.0181,-0.1438,-0.01709
1745851471.4926555,3.361,3.625,9.783,0.242,-17.82,-9.723,0.98926,-0.0181,-0.1438,-0.01709
1745851471.5190184,4.334,1.346,8.61,0.181,-17.666,-10.421,0.98926,-0.0181,-0.1438,-0.01709
1745851471.547866,4.334,1.346,8.61,0.121,-17.518,-11.113,0.98926,-0.0181,-0.1438,-0.01709
1745851471.5498707,3.347,-2.49,6.402,0.066,-17.54,-11.832,0.98926,-0.0181,-0.1438,-0.01709
1745851471.5498707,3.347,-2.49,6.402,0.0,-17.562,-12.541,0.98926,-0.0181,-0.1438,-0.01709
1745851471.5785544,1.867,-2.471,7.049,0.187,-17.672,-13.167,0.98926,-0.0181,-0.1438,-0.01709
1745851471.5799055,1.867,-2.471,7.049,0.363,-17.776,-13.788,0.9816,-0.01599,-0.1528,-0.11304
1745851471.58055,2.093,-0.172,7.824,0.692,-17.831,-14.496,0.9816,-0.01599,-0.1528,-0.11304
1745851471.5819058,2.093,-0.172,7.824,1.016,-17.88,-15.205,0.9816,-0.01599,-0.1528,-0.11304
1745851471.6085498,4.539,2.212,8.571,1.401,-17.913,-15.826,0.9816,-0.01599,-0.1528,-0.11304
1745851471.6105478,2.27,1.106,4.286,1.791,-17.946,-16.452,0.9816,-0.01599,-0.1528,-0.11304
1745851471.6115456,5.411,3.745,10.075,1.956,-17.93,-16.787,0.9816,-0.01599,-0.1528,-0.11304
1745851471.6115456,5.411,3.745,10.075,2.131,-17.919,-17.122,0.9816,-0.01599,-0.1528,-0.11304
1745851471.638785,3.108,2.169,9.419,2.049,-17.672,-17.523,0.9816,-0.01599,-0.1528,-0.11304
1745851471.6891127,3.108,2.169,9.419,1.978,-17.424,-17.919,0.9816,-0.01599,-0.1528,-0.11304
1745851471.690115,1.724,-1.733,6.512,1.763,-17.303,-18.699,0.9816,-0.01599,-0.1528,-0.11304
1745851471.6911159,1.724,-1.733,6.512,1.538,-17.177,-19.473,0.9816,-0.01599,-0.1528,-0.11304
1745851471.6983414,2.174,-2.634,5.99,1.686,-17.32,-20.391,0.9816,-0.01599,-0.1528,-0.11304
1745851471.6993494,2.174,-2.634,5.99,1.829,-17.452,-21.302,0.9816,-0.01599,-0.1528,-0.11304
1745851471.7003374,3.61,0.69,8.049,2.065,-17.759,-22.022,0.9816,-0.01599,-0.1528,-0.11304
1745851471.7003374,3.61,0.69,8.049,2.313,-18.067,-22.736,0.9816,-0.01599,-0.1528,-0.11304
1745851471.728503,3.998,2.567,8.763,2.62,-18.221,-23.439,0.9816,-0.01599,-0.1528,-0.11304
1745851471.7304993,3.998,2.567,8.763,2.933,-18.369,-24.148,0.9816,-0.01599,-0.1528,-0.11304
1745851471.7318583,4.731,3.17,8.782,3.367,-18.281,-24.807,0.9816,-0.01599,-0.1528,-0.11304
1745851471.7325003,4.731,3.17,8.782,3.807,-18.193,-25.461,0.96478,-0.00574,-0.16132,-0.2074
1745851471.7586725,3.5,3.879,9.29,4.235,-17.979,-25.983,0.96478,-0.00574,-0.16132,-0.2074
1745851471.8131764,3.5,3.879,9.29,4.669,-17.759,-26.494,0.96478,-0.00574,-0.16132,-0.2074
1745851471.8131764,3.045,4.846,9.754,5.07,-17.534,-26.9,0.96478,-0.00574,-0.16132,-0.2074
1745851471.8141642,3.045,4.846,9.754,5.477,-17.298,-27.301,0.96478,-0.00574,-0.16132,-0.2074
1745851471.818169,2.729,5.598,10.056,5.823,-17.216,-27.729,0.96478,-0.00574,-0.16132,-0.2074
1745851471.8191698,2.729,5.598,10.056,6.18,-17.128,-28.158,0.96478,-0.00574,-0.16132,-0.2074
1745851471.8201685,3.007,6.057,10.338,6.449,-17.089,-28.575,0.96478,-0.00574,-0.16132,-0.2074
1745851471.8211682,3.007,6.057,10.338,6.729,-17.04,-28.993,0.96478,-0.00574,-0.16132,-0.2074
1745851471.8494754,3.601,6.349,10.348,6.976,-17.051,-29.317,0.96478,-0.00574,-0.16132,-0.2074
1745851471.8504786,3.601,6.349,10.348,7.224,-17.056,-29.641,0.96478,-0.00574,-0.16132,-0.2074
1745851471.8514743,4.156,6.431,10.228,7.405,-17.045,-29.811,0.96478,-0.00574,-0.16132,-0.2074
1745851471.8524761,4.156,6.431,10.228,7.592,-17.034,-29.987,0.96478,-0.00574,-0.16132,-0.2074
1745851471.8788183,3.223,5.674,10.324,7.674,-16.908,-30.119,0.96478,-0.00574,-0.16132,-0.2074
1745851471.905259,3.223,5.674,10.324,7.751,-16.782,-30.251,0.96478,-0.00574,-0.16132,-0.2074
1745851471.905259,2.624,4.769,10.003,7.762,-16.595,-30.344,0.95535,0.02658,-0.15799,-0.24802
1745851471.9062662,2.624,4.769,10.003,7.767,-16.408,-30.438,0.95535,0.02658,-0.15799,-0.24802
1745851471.938723,1.705,3.151,9.419,7.74,-16.144,-30.536,0.95535,0.02658,-0.15799,-0.24802
1745851471.93972,1.705,3.151,9.419,7.707,-15.881,-30.635,0.95535,0.02658,-0.15799,-0.24802
1745851471.94072,0.881,2.088,9.136,7.712,-15.804,-30.696,0.95535,0.02658,-0.15799,-0.24802
1745851471.9417205,0.881,2.088,9.136,7.718,-15.721,-30.756,0.95535,0.02658,-0.15799,-0.24802
1745851471.9687078,1.676,2.533,9.668,7.778,-15.738,-30.773,0.95535,0.02658,-0.15799,-0.24802
1745851471.970557,1.676,2.533,9.668,7.833,-15.743,-30.789,0.95535,0.02658,-0.15799,-0.24802
1745851471.970557,1.949,2.71,9.831,7.866,-15.732,-30.822,0.95535,0.02658,-0.15799,-0.24802
1745851471.9717705,1.949,2.71,9.831,7.894,-15.71,-30.855,0.95535,0.02658,-0.15799,-0.24802
1745851471.9990342,2.313,2.121,9.361,7.899,-15.688,-30.894,0.95535,0.02658,-0.15799,-0.24802
1745851472.0466957,2.313,2.121,9.361,7.899,-15.667,-30.938,0.95535,0.02658,-0.15799,-0.24802
1745851472.0476952,3.175,2.375,9.596,7.905,-15.677,-30.817,0.95535,0.02658,-0.15799,-0.24802
1745851472.0486999,3.175,2.375,9.596,7.905,-15.694,-30.701,0.95535,0.02658,-0.15799,-0.24802
1745851472.0587242,2.749,2.696,9.725,7.899,-15.727,-30.591,0.95535,0.02658,-0.15799,-0.24802
1745851472.0597296,2.749,2.696,9.725,7.894,-15.76,-30.482,0.95566,0.02982,-0.14966,-0.25162
1745851472.0597296,2.691,2.126,9.634,7.899,-15.776,-30.41,0.95566,0.02982,-0.14966,-0.25162
1745851472.0607235,2.691,2.126,9.634,7.894,-15.798,-30.339,0.95566,0.02982,-0.14966,-0.25162
1745851472.0889487,2.624,2.356,10.008,7.866,-15.842,-30.223,0.95566,0.02982,-0.14966,-0.25162
1745851472.0895903,2.624,2.356,10.008,7.833,-15.892,-30.114,0.95566,0.02982,-0.14966,-0.25162
1745851472.0915906,2.562,1.753,9.783,7.729,-15.947,-30.026,0.95566,0.02982,-0.14966,-0.25162
1745851472.0925913,2.562,1.753,9.783,7.63,-15.996,-29.938,0.95566,0.02982,-0.14966,-0.25162
1745851472.1494327,3.026,0.943,9.538,7.493,-16.035,-29.844,0.95566,0.02982,-0.14966,-0.25162
1745851472.1917198,3.026,0.943,9.538,7.35,-16.068,-29.751,0.95566,0.02982,-0.14966,-0.25162
1745851472.1927378,3.285,-0.239,8.863,7.202,-16.057,-29.63,0.95566,0.02982,-0.14966,-0.25162
1745851472.1937392,3.285,-0.239,8.863,7.048,-16.046,-29.515,0.95566,0.02982,-0.14966,-0.25162
1745851472.1937392,2.734,-0.862,8.657,6.949,-16.013,-29.399,0.95566,0.02982,-0.14966,-0.25162
1745851472.1947362,2.734,-0.862,8.657,6.833,-15.974,-29.284,0.95566,0.02982,-0.14966,-0.25162
1745851472.195697,2.26,-1.211,9.026,6.746,-15.936,-29.202,0.95566,0.02982,-0.14966,-0.25162
1745851472.1969287,2.26,-1.211,9.026,6.647,-15.897,-29.114,0.95566,0.02982,-0.14966,-0.25162
1745851472.207406,2.48,-1.69,8.739,6.619,-15.892,-29.086,0.95566,0.02982,-0.14966,-0.25162
1745851472.208588,2.48,-1.69,8.739,6.586,-15.886,-29.059,0.95566,0.02982,-0.14966,-0.25162
1745851472.2105877,3.156,-0.781,9.184,6.614,-15.98,-29.02,0.95566,0.02982,-0.14966,-0.25162
1745851472.2105877,3.156,-0.781,9.184,6.636,-16.073,-28.982,0.95566,0.02982,-0.14966,-0.25162
1745851472.26847,2.887,-0.062,9.902,6.625,-16.128,-29.042,0.95566,0.02982,-0.14966,-0.25162
1745851472.2981071,2.887,-0.062,9.902,6.608,-16.183,-29.097,0.95877,0.02008,-0.15015,-0.2402
1745851472.2991068,2.811,0.014,9.668,6.597,-16.183,-29.24,0.95877,0.02008,-0.15015,-0.2402
1745851472.3001063,2.811,0.014,9.668,6.586,-16.183,-29.383,0.95877,0.02008,-0.15015,-0.2402
1745851472.3011062,3.529,1.188,9.859,6.564,-16.265,-29.465,0.95877,0.02008,-0.15015,-0.2402
1745851472.3021066,3.529,1.188,9.859,6.542,-16.348,-29.548,0.95877,0.02008,-0.15015,-0.2402
1745851472.3031065,3.577,1.834,10.496,6.438,-16.419,-29.625,0.95877,0.02008,-0.15015,-0.2402
1745851472.3031065,3.577,1.834,10.496,6.345,-16.496,-29.702,0.95877,0.02008,-0.15015,-0.2402
1745851472.3280084,3.366,0.871,9.649,6.224,-16.496,-29.817,0.95877,0.02008,-0.15015,-0.2402
1745851472.3290043,3.366,0.871,9.649,6.108,-16.496,-29.932,0.95877,0.02008,-0.15015,-0.2402
1745851472.3300083,3.792,1.513,9.606,6.059,-16.562,-29.96,0.95877,0.02008,-0.15015,-0.2402
1745851472.3313577,3.792,1.513,9.606,6.01,-16.628,-29.982,0.95877,0.02008,-0.15015,-0.2402
1745851472.3887482,3.591,2.653,10.228,5.955,-16.683,-29.987,0.95877,0.02008,-0.15015,-0.2402
1745851472.4438725,3.338,2.591,10.592,5.872,-16.694,-30.02,0.95877,0.02008,-0.15015,-0.2402
1745851472.444874,3.338,2.591,10.592,5.768,-16.65,-30.075,0.95877,0.02008,-0.15015,-0.2402
1745851472.4458733,3.424,2.653,10.491,5.652,-16.661,-30.075,0.95877,0.02008,-0.15015,-0.2402
1745851472.44687,3.424,2.653,10.491,5.526,-16.721,-30.026,0.95624,0.00897,-0.15253,-0.24936
1745851472.4478788,3.634,3.922,10.898,5.4,-16.848,-29.899,0.95624,0.00897,-0.15253,-0.24936
1745851472.448879,3.634,3.922,10.898,5.279,-17.034,-29.713,0.95624,0.00897,-0.15253,-0.24936
1745851472.449876,4.463,5.1,11.325,5.136,-17.183,-29.498,0.95624,0.00897,-0.15253,-0.24936
1745851472.4518723,4.463,5.1,11.325,4.977,-17.298,-29.257,0.95624,0.00897,-0.15253,-0.24936
1745851472.4528792,4.353,5.248,11.487,4.774,-17.347,-28.971,0.95624,0.00897,-0.15253,-0.24936
1745851472.4538753,4.353,5.248,11.487,4.521,-17.336,-28.652,0.95624,0.00897,-0.15253,-0.24936
1745851472.4548724,3.701,4.501,11.061,4.252,-17.347,-28.229,0.95624,0.00897,-0.15253,-0.24936
1745851472.509226,3.701,4.501,11.061,3.966,-17.38,-27.708,0.95624,0.00897,-0.15253,-0.24936
1745851472.566377,2.567,4.152,10.783,3.653,-17.463,-27.059,0.95624,0.00897,-0.15253,-0.24936
1745851472.5673735,2.567,4.152,10.783,3.323,-17.589,-26.29,0.95624,0.00897,-0.15253,-0.24936
1745851472.5683734,1.954,4.477,10.803,3.01,-17.743,-25.516,0.95624,0.00897,-0.15253,-0.24936
1745851472.5693712,1.954,4.477,10.803,2.719,-17.919,-24.741,0.95624,0.00897,-0.15253,-0.24936
1745851472.570371,2.27,4.29,10.75,2.362,-18.089,-23.983,0.95624,0.00897,-0.15253,-0.24936
1745851472.571371,2.27,4.29,10.75,1.945,-18.254,-23.247,0.95624,0.00897,-0.15253,-0.24936
1745851472.572374,1.686,2.37,9.529,1.472,-18.353,-22.555,0.95624,0.00897,-0.15253,-0.24936
1745851472.573376,1.686,2.37,9.529,0.956,-18.386,-21.901,0.95624,0.00897,-0.15253,-0.24936
1745851472.5743704,2.868,0.943,8.203,0.505,-18.43,-21.209,0.95624,0.00897,-0.15253,-0.24936
1745851472.5743704,2.868,0.943,8.203,0.115,-18.474,-20.473,0.95624,0.00897,-0.15253,-0.24936
1745851472.5753703,3.27,1.762,8.183,-0.214,-18.561,-19.688,0.95624,0.00897,-0.15253,-0.24936
1745851472.6290586,3.27,1.762,8.183,-0.489,-18.688,-18.853,0.95624,0.00897,-0.15253,-0.24936
1745851472.6568732,3.486,2.437,8.552,-0.764,-18.754,-18.1,0.95624,0.00897,-0.15253,-0.24936
1745851472.6588724,3.486,2.437,8.552,-1.027,-18.748,-17.424,0.95624,0.00897,-0.15253,-0.24936
1745851472.659872,0.972,1.556,9.002,-1.362,-18.622,-16.82,0.95624,0.00897,-0.15253,-0.24936
1745851472.6608818,0.972,1.556,9.002,-1.758,-18.358,-16.282,0.97629,-0.03644,-0.15704,-0.14423
1745851472.6608818,-0.196,-0.781,8.126,-2.126,-18.127,-15.771,0.97629,-0.03644,-0.15704,-0.14423
1745851472.6618762,-0.196,-0.781,8.126,-2.466,-17.919,-15.276,0.97629,-0.03644,-0.15704,-0.14423
1745851472.6631494,1.848,-0.388,7.973,-2.752,-17.836,-14.667,0.97629,-0.03644,-0.15704,-0.14423
1745851472.6887877,1.848,-0.388,7.973,-2.988,-17.886,-13.936,0.97629,-0.03644,-0.15704,-0.14423
1745851472.690798,2.796,1.317,8.959,-3.224,-17.963,-13.25,0.97629,-0.03644,-0.15704,-0.14423
1745851472.6917942,2.796,1.317,8.959,-3.461,-18.056,-12.601,0.97629,-0.03644,-0.15704,-0.14423
1745851472.6927876,3.95,0.426,7.307,-3.763,-18.073,-12.068,0.97629,-0.03644,-0.15704,-0.14423
1745851472.7485979,3.95,0.426,7.307,-4.131,-18.007,-11.64,0.97629,-0.03644,-0.15704,-0.14423
1745851472.8604403,2.303,-1.322,6.479,-4.548,-17.908,-11.184,0.97629,-0.03644,-0.15704,-0.14423
1745851472.8820808,2.303,-1.322,6.479,-5.01,-17.77,-10.701,0.97629,-0.03644,-0.15704,-0.14423
1745851472.8820808,1.331,-1.872,6.483,-5.411,-17.672,-10.261,0.97629,-0.03644,-0.15704,-0.14423
1745851472.8830988,1.331,-1.872,6.483,-5.746,-17.617,-9.877,0.97629,-0.03644,-0.15704,-0.14423
1745851472.8840992,3.558,-2.179,6.215,-6.004,-17.622,-9.547,0.97629,-0.03644,-0.15704,-0.14423
1745851472.8840992,3.558,-2.179,6.215,-6.196,-17.682,-9.267,0.97629,-0.03644,-0.15704,-0.14423
1745851472.8850982,4.367,-0.675,6.512,-6.356,-17.682,-8.981,0.97629,-0.03644,-0.15704,-0.14423
1745851472.8860934,4.367,-0.675,6.512,-6.476,-17.622,-8.679,0.97629,-0.03644,-0.15704,-0.14423
1745851472.8860934,4.357,1.226,7.81,-6.669,-17.49,-8.295,0.97629,-0.03644,-0.15704,-0.14423
1745851472.8860934,4.357,1.226,7.81,-6.921,-17.298,-7.828,0.97629,-0.03644,-0.15704,-0.14423
1745851472.8860934,1.398,-1.034,7.724,-7.245,-16.979,-7.482,0.97629,-0.03644,-0.15704,-0.14423
1745851472.8860934,1.398,-1.034,7.724,-7.657,-16.529,-7.251,0.97629,-0.03644,-0.15704,-0.14423
1745851472.8860934,0.56,-2.921,6.46,-8.08,-16.106,-7.081,0.97629,-0.03644,-0.15704,-0.14423
1745851472.8860934,0.56,-2.921,6.46,-8.52,-15.699,-6.971,0.97629,-0.03644,-0.15704,-0.14423
1745851472.8860934,1.566,-3.136,5.267,-8.871,-15.353,-6.801,0.97629,-0.03644,-0.15704,-0.14423
1745851472.8944478,1.566,-3.136,5.267,-9.146,-15.073,-6.564,0.97629,-0.03644,-0.15704,-0.14423
1745851472.8944478,3.768,-1.001,5.085,-9.327,-14.788,-6.334,0.97629,-0.03644,-0.15704,-0.14423
1745851472.8944478,3.768,-1.001,5.085,-9.404,-14.507,-6.108,0.97629,-0.03644,-0.15704,-0.14423
1745851472.8944478,4.381,0.201,5.31,-9.542,-14.233,-5.889,0.97629,-0.03644,-0.15704,-0.14423
1745851472.9290102,4.381,0.201,5.31,-9.734,-13.969,-5.674,0.97629,-0.03644,-0.15704,-0.14423
1745851472.9300115,2.471,-1.322,5.899,-9.97,-13.716,-5.46,0.97629,-0.03644,-0.15704,-0.14423
1745851472.9310114,2.471,-1.322,5.899,-10.261,-13.453,-5.262,0.98743,-0.09186,-0.11469,-0.05753
1745851472.932011,0.369,-2.983,6.565,-10.574,-13.156,-5.032,0.98743,-0.09186,-0.11469,-0.05753
1745851472.988601,0.369,-2.983,6.565,-10.926,-12.805,-4.785,0.98743,-0.09186,-0.11469,-0.05753
1745851473.0286024,0.373,-4.233,6.244,-11.261,-12.426,-4.592,0.98743,-0.09186,-0.11469,-0.05753
1745851473.0286024,0.373,-4.233,6.244,-11.585,-12.025,-4.46,0.98743,-0.09186,-0.11469,-0.05753
1745851473.0286024,1.925,-4.573,6.345,-11.849,-11.624,-4.351,0.98743,-0.09186,-0.11469,-0.05753
1745851473.0286024,1.925,-4.573,6.345,-12.063,-11.228,-4.274,0.98743,-0.09186,-0.11469,-0.05753
1745851473.0286024,1.858,-3.625,7.518,-12.217,-10.854,-4.131,0.98743,-0.09186,-0.11469,-0.05753
1745851473.039574,1.858,-3.625,7.518,-12.305,-10.497,-3.922,0.98743,-0.09186,-0.11469,-0.05753
1745851473.039574,0.603,-3.361,8.25,-12.404,-10.129,-3.774,0.98743,-0.09186,-0.11469,-0.05753
1745851473.0445938,0.603,-3.361,8.25,-12.513,-9.745,-3.697,0.98743,-0.09186,-0.11469,-0.05753
1745851473.0445938,-1.441,-5.066,8.203,-12.607,-9.382,-3.691,0.98743,-0.09186,-0.11469,-0.05753
1745851473.0445938,-1.441,-5.066,8.203,-12.7,-9.025,-3.746,0.98743,-0.09186,-0.11469,-0.05753
1745851473.0445938,-1.101,-6.067,8.14,-12.766,-8.69,-3.867,0.98743,-0.09186,-0.11469,-0.05753
1745851473.1097257,-1.101,-6.067,8.14,-12.81,-8.383,-4.043,0.98743,-0.09186,-0.11469,-0.05753
1745851473.1399078,-1.092,-6.163,6.819,-12.832,-8.086,-4.208,0.99014,-0.11377,-0.06863,-0.04312
1745851473.141905,-1.092,-6.163,6.819,-12.821,-7.806,-4.356,0.99014,-0.11377,-0.06863,-0.04312
1745851473.1429064,-1.039,-5.607,7.35,-12.722,-7.553,-4.526,0.99014,-0.11377,-0.06863,-0.04312
1745851473.144602,-1.039,-5.607,7.35,-12.53,-7.328,-4.708,0.99014,-0.11377,-0.06863,-0.04312
1745851473.1461563,2.409,-1.47,9.941,-12.294,-7.042,-4.933,0.99014,-0.11377,-0.06863,-0.04312
1745851473.1461563,2.409,-1.47,9.941,-11.992,-6.713,-5.191,0.99014,-0.11377,-0.06863,-0.04312
1745851473.1461563,3.663,-0.728,9.725,-11.821,-6.405,-5.367,0.99014,-0.11377,-0.06863,-0.04312
1745851473.1665502,3.663,-0.728,9.725,-11.772,-6.108,-5.455,0.99014,-0.11377,-0.06863,-0.04312
1745851473.1665502,0.675,-3.63,8.758,-11.783,-5.823,-5.411,0.99014,-0.11377,-0.06863,-0.04312
1745851473.1665502,0.675,-3.63,8.758,-11.849,-5.537,-5.235,0.99014,-0.11377,-0.06863,-0.04312
1745851473.1665502,-3.39,-6.201,9.376,-11.931,-5.24,-5.142,0.99014,-0.11377,-0.06863,-0.04312
1745851473.2279575,-3.39,-6.201,9.376,-12.025,-4.927,-5.136,0.99014,-0.11377,-0.06863,-0.04312
1745851473.264301,-2.787,-6.258,8.442,-12.041,-4.587,-5.251,0.99014,-0.11377,-0.06863,-0.04312
1745851473.264301,-2.787,-6.258,8.442,-11.964,-4.23,-5.488,0.99014,-0.11377,-0.06863,-0.04312
1745851473.264301,-0.45,-3.658,8.882,-11.794,-3.928,-5.713,0.99014,-0.11377,-0.06863,-0.04312
1745851473.275959,-0.45,-3.658,8.882,-11.514,-3.691,-5.916,0.99268,-0.10425,-0.02893,-0.05307
1745851473.275959,1.662,-2.126,9.658,-11.245,-3.406,-6.081,0.99268,-0.10425,-0.02893,-0.05307
1745851473.2769885,1.662,-2.126,9.658,-10.975,-3.082,-6.207,0.99268,-0.10425,-0.02893,-0.05307
1745851473.2779863,1.891,-2.83,9.797,-10.728,-2.703,-6.257,0.99268,-0.10425,-0.02893,-0.05307
1745851473.3108501,1.891,-2.83,9.797,-10.497,-2.274,-6.218,0.99268,-0.10425,-0.02893,-0.05307
1745851473.3108501,-0.886,-3.165,8.854,-10.212,-1.934,-6.147,0.99268,-0.10425,-0.02893,-0.05307
1745851473.3108501,-0.886,-3.165,8.854,-9.871,-1.67,-6.042,0.99268,-0.10425,-0.02893,-0.05307
1745851473.3108501,-0.848,-1.499,10.089,-9.509,-1.423,-6.07,0.99268,-0.10425,-0.02893,-0.05307
1745851473.344348,-0.848,-1.499,10.089,-9.113,-1.198,-6.229,0.99268,-0.10425,-0.02893,-0.05307
1745851473.3955584,-0.69,-0.709,11.808,-8.789,-0.923,-6.411,0.99268,-0.10425,-0.02893,-0.05307
1745851473.3955584,-0.69,-0.709,11.808,-8.514,-0.599,-6.614,0.99268,-0.10425,-0.02893,-0.05307
1745851473.4058497,-1.207,-1.231,12.9,-8.344,-0.236,-6.795,0.99268,-0.10425,-0.02893,-0.05307
1745851473.4383821,-1.207,-1.231,12.9,-8.262,0.159,-6.96,0.99268,-0.10425,-0.02893,-0.05307
1745851473.4393861,-1.441,-3.045,11.904,-8.24,0.582,-7.169,0.99268,-0.10425,-0.02893,-0.05307
1745851473.4407375,-1.441,-3.045,11.904,-8.284,1.033,-7.421,0.99268,-0.10425,-0.02893,-0.05307
1745851473.441385,-0.642,-3.97,10.697,-8.317,1.428,-7.641,0.99268,-0.10425,-0.02893,-0.05307
1745851473.443383,-0.642,-3.97,10.697,-8.355,1.774,-7.822,0.99268,-0.10425,-0.02893,-0.05307
1745851473.4443786,-0.254,-3.754,10.127,-8.344,2.098,-7.938,0.99268,-0.10425,-0.02893,-0.05307
1745851473.4740114,-0.254,-3.754,10.127,-8.278,2.406,-7.998,0.99268,-0.10425,-0.02893,-0.05307
1745851473.4746351,-2.193,-4.085,10.252,-8.163,2.697,-8.036,0.99268,-0.10425,-0.02893,-0.05307
1745851473.475636,-2.193,-4.085,10.252,-7.998,2.983,-8.058,0.99268,-0.10425,-0.02893,-0.05307
1745851473.4775796,-2.921,-3.089,11.349,-7.718,3.137,-8.168,0.99268,-0.10425,-0.02893,-0.05307
1745851473.4785206,-2.921,-3.089,11.349,-7.443,3.301,-8.278,0.99268,-0.10425,-0.02893,-0.05307
1745851473.4790487,-0.871,-0.589,12.847,-7.202,3.373,-8.427,0.99268,-0.10425,-0.02893,-0.05307
1745851473.498662,-0.871,-0.589,12.847,-6.949,3.439,-8.575,0.995,-0.06046,0.03391,-0.07147
1745851473.4996624,-0.651,-0.215,13.187,-6.833,3.521,-8.641,0.995,-0.06046,0.03391,-0.07147
1745851473.500662,-0.651,-0.215,13.187,-6.707,3.604,-8.701,0.995,-0.06046,0.03391,-0.07147
1745851473.5016618,-2.15,-1.427,13.144,-6.691,3.686,-8.745,0.995,-0.06046,0.03391,-0.07147
1745851473.5588121,-2.15,-1.427,13.144,-6.674,3.774,-8.784,0.995,-0.06046,0.03391,-0.07147
1745851473.5950491,-1.489,-2.389,12.392,-6.685,3.895,-8.981,0.995,-0.06046,0.03391,-0.07147
1745851473.5950491,-1.489,-2.389,12.392,-6.696,4.016,-9.185,0.995,-0.06046,0.03391,-0.07147
1745851473.5950491,-0.359,-2.327,11.329,-6.647,4.032,-9.311,0.995,-0.06046,0.03391,-0.07147
1745851473.5950491,-0.359,-2.327,11.329,-6.597,4.048,-9.443,0.995,-0.06046,0.03391,-0.07147
1745851473.6077716,-0.402,-1.82,11.267,-6.482,4.021,-9.487,0.995,-0.06046,0.03391,-0.07147
1745851473.6077716,-0.402,-1.82,11.267,-6.372,3.988,-9.536,0.995,-0.06046,0.03391,-0.07147
1745851473.6087878,-1.484,-2.164,11.382,-6.218,3.983,-9.624,0.995,-0.06046,0.03391,-0.07147
1745851473.6134973,-1.484,-2.164,11.382,-6.064,3.977,-9.717,0.995,-0.06046,0.03391,-0.07147
1745851473.6134973,-2.203,-1.834,12.402,-5.883,3.906,-9.882,0.995,-0.06046,0.03391,-0.07147
1745851473.6134973,-2.203,-1.834,12.402,-5.696,3.834,-10.052,0.995,-0.06046,0.03391,-0.07147
1745851473.6134973,-1.25,-1.614,11.961,-5.609,3.697,-10.349,0.995,-0.06046,0.03391,-0.07147
1745851473.7091918,-1.25,-1.614,11.961,-5.515,3.56,-10.646,0.995,-0.06046,0.03391,-0.07147
1745851473.737994,0.373,-0.498,11.708,-5.339,3.466,-10.838,0.99411,-0.04425,0.03491,-0.09201
1745851473.7389905,0.373,-0.498,11.708,-5.164,3.367,-11.036,0.99411,-0.04425,0.03491,-0.09201
1745851473.7400303,-0.153,-0.259,11.775,-5.015,3.29,-11.162,0.99411,-0.04425,0.03491,-0.09201
1745851473.7419944,-0.153,-0.259,11.775,-4.867,3.214,-11.288,0.99411,-0.04425,0.03491,-0.09201
1745851473.742993,-0.565,-0.943,11.631,-4.752,3.12,-11.409,0.99411,-0.04425,0.03491,-0.09201
1745851473.7439892,-0.565,-0.943,11.631,-4.636,3.027,-11.536,0.99411,-0.04425,0.03491,-0.09201
1745851473.7449915,-0.254,-0.891,11.77,-4.548,2.911,-11.596,0.99411,-0.04425,0.03491,-0.09201
1745851473.7459898,-0.254,-0.891,11.77,-4.46,2.802,-11.651,0.99411,-0.04425,0.03491,-0.09201
1745851473.7459898,-0.345,-1.772,10.132,-4.433,2.686,-11.777,0.99411,-0.04425,0.03491,-0.09201
1745851473.747349,-0.345,-1.772,10.132,-4.406,2.571,-11.909,0.99411,-0.04425,0.03491,-0.09201
1745851473.747995,0.105,-2.241,9.17,-4.235,2.483,-12.085,0.99411,-0.04425,0.03491,-0.09201
1745851473.829181,0.105,-2.241,9.17,-4.065,2.39,-12.266,0.99411,-0.04425,0.03491,-0.09201
1745851473.881117,0.785,-0.493,10.214,-3.829,2.296,-12.343,0.99411,-0.04425,0.03491,-0.09201
1745851473.8821197,0.785,-0.493,10.214,-3.587,2.197,-12.426,0.99411,-0.04425,0.03491,-0.09201
1745851473.8821197,0.436,0.532,10.453,-3.406,2.131,-12.437,0.99411,-0.04425,0.03491,-0.09201
1745851473.8831282,0.436,0.532,10.453,-3.219,2.065,-12.448,0.99353,-0.02673,0.02136,-0.10779
1745851473.8841238,-0.278,0.536,10.257,-3.054,2.087,-12.491,0.99353,-0.02673,0.02136,-0.10779
1745851473.8841238,-0.278,0.536,10.257,-2.889,2.115,-12.53,0.99353,-0.02673,0.02136,-0.10779
1745851473.88512,-0.22,1.365,11.032,-2.791,2.159,-12.552,0.99353,-0.02673,0.02136,-0.10779
1745851473.8861177,-0.22,1.365,11.032,-2.692,2.203,-12.579,0.99353,-0.02673,0.02136,-0.10779
1745851473.8861177,-0.005,1.36,10.822,-2.747,2.186,-12.59,0.99353,-0.02673,0.02136,-0.10779
1745851473.8871186,-0.005,1.36,10.822,-2.796,2.164,-12.607,0.99353,-0.02673,0.02136,-0.10779
1745851473.888119,0.048,0.484,10.396,-2.895,2.12,-12.574,0.99353,-0.02673,0.02136,-0.10779
1745851473.9177969,0.048,0.484,10.396,-2.988,2.071,-12.541,0.99353,-0.02673,0.02136,-0.10779
1745851473.9177969,-0.283,0.397,10.683,-3.082,2.021,-12.442,0.99353,-0.02673,0.02136,-0.10779
1745851473.9197865,-0.283,0.397,10.683,-3.17,1.967,-12.343,0.99353,-0.02673,0.02136,-0.10779
1745851473.920796,-0.536,-0.182,10.827,-3.296,1.928,-12.272,0.99353,-0.02673,0.02136,-0.10779
1745851473.94567,-0.536,-0.182,10.827,-3.422,1.895,-12.206,0.99353,-0.02673,0.02136,-0.10779
1745851473.9901052,-0.115,-1.25,10.142,-3.532,1.928,-12.156,0.99353,-0.02673,0.02136,-0.10779
1745851473.9910996,-0.115,-1.25,10.142,-3.647,1.961,-12.112,0.99353,-0.02673,0.02136,-0.10779
1745851473.992095,0.048,-1.111,10.032,-3.658,1.983,-11.92,0.99353,-0.02673,0.02136,-0.10779
1745851473.9930997,0.048,-1.111,10.032,-3.675,2.005,-11.733,0.99353,-0.02673,0.02136,-0.10779
1745851473.9930997,-0.378,-0.254,10.338,-3.669,2.049,-11.514,0.99353,-0.02673,0.02136,-0.10779
1745851473.994098,-0.378,-0.254,10.338,-3.664,2.087,-11.294,0.99353,-0.02673,0.02136,-0.10779
1745851473.994098,-0.172,-0.11,9.878,-3.702,2.181,-11.129,0.99353,-0.02673,0.02136,-0.10779
