timestamp,AccX,AccY,AccZ,AngX,AngY,AngZ,Q0,Q1,Q2,Q3
1745601952.5123172,6.029,2.892,7.336,17.397,-40.413,-130.287,0.43649,-0.25052,-0.27252,-0.81995
1745601952.51332,6.038,2.84,7.345,17.375,-40.402,-130.248,0.43649,-0.25052,-0.27252,-0.81995
1745601952.51332,6.038,2.84,7.345,17.353,-40.397,-130.21,0.43649,-0.25052,-0.27252,-0.81995
1745601952.514315,6.158,2.897,7.331,17.331,-40.391,-130.172,0.43649,-0.25052,-0.27252,-0.81995
1745601952.5427103,6.158,2.897,7.331,17.314,-40.391,-130.139,0.43649,-0.25052,-0.27252,-0.81995
1745601952.5967176,6.263,2.883,7.384,17.298,-40.397,-130.106,0.43649,-0.25052,-0.27252,-0.81995
1745601952.5977054,6.263,2.883,7.384,17.287,-40.402,-130.078,0.43649,-0.25052,-0.27252,-0.81995
1745601952.5987048,6.311,2.883,7.441,17.281,-40.402,-130.051,0.43649,-0.25052,-0.27252,-0.81995
1745601952.6007056,6.311,2.883,7.441,17.276,-40.402,-130.029,0.43649,-0.25052,-0.27252,-0.81995
1745601952.6007056,6.469,3.156,7.436,17.276,-40.402,-130.012,0.43649,-0.25052,-0.27252,-0.81995
1745601952.6017113,6.469,3.156,7.436,17.281,-40.408,-130.007,0.43649,-0.25052,-0.27252,-0.81995
1745601952.6017113,6.618,3.151,7.551,17.292,-40.419,-130.001,0.43649,-0.25052,-0.27252,-0.81995
1745601952.6642408,6.618,3.151,7.551,17.309,-40.441,-130.001,0.43649,-0.25052,-0.27252,-0.81995
1745601952.6942422,6.838,3.132,7.604,17.331,-40.457,-130.007,0.43649,-0.25052,-0.27252,-0.81995
1745601952.6952512,6.838,3.132,7.604,17.353,-40.479,-130.012,0.43649,-0.25052,-0.27252,-0.81995
1745601952.6962452,6.924,3.237,7.681,17.38,-40.501,-130.023,0.43649,-0.25052,-0.27252,-0.81995
1745601952.697245,6.924,3.237,7.681,17.408,-40.518,-130.04,0.43649,-0.25052,-0.27252,-0.81995
1745601952.6982405,6.881,3.5,7.685,17.441,-40.534,-130.067,0.43649,-0.25052,-0.27252,-0.81995
1745601952.7002409,6.881,3.5,7.685,17.485,-40.54,-130.106,0.43649,-0.25052,-0.27252,-0.81995
1745601952.701247,6.79,3.855,7.791,17.54,-40.545,-130.177,0.43649,-0.25052,-0.27252,-0.81995
1745601952.7227414,6.79,3.855,7.791,17.606,-40.534,-130.265,0.43649,-0.25052,-0.27252,-0.81995
1745601952.7247355,6.862,4.08,7.786,17.688,-40.518,-130.386,0.43649,-0.25052,-0.27252,-0.81995
1745601952.7257328,6.862,4.08,7.786,17.781,-40.485,-130.529,0.4368,-0.24994,-0.2746,-0.81927
1745601952.727743,6.761,4.266,7.642,17.908,-40.435,-130.699,0.4368,-0.24994,-0.2746,-0.81927
1745601952.7531073,6.761,4.266,7.642,18.051,-40.369,-130.891,0.4368,-0.24994,-0.2746,-0.81927
1745601952.7541087,6.704,4.626,7.393,18.237,-40.303,-131.122,0.4368,-0.24994,-0.2746,-0.81927
1745601952.7551022,6.704,4.626,7.393,18.463,-40.226,-131.391,0.4368,-0.24994,-0.2746,-0.81927
1745601952.7571034,6.776,4.865,7.197,18.792,-40.188,-131.765,0.4368,-0.24994,-0.2746,-0.81927
1745601952.7829022,6.776,4.865,7.197,19.122,-40.144,-132.138,0.4368,-0.24994,-0.2746,-0.81927
1745601952.8439307,7.101,4.932,6.991,19.55,-40.139,-132.594,0.4368,-0.24994,-0.2746,-0.81927
1745601952.8449054,7.101,4.932,6.991,19.973,-40.128,-133.044,0.4368,-0.24994,-0.2746,-0.81927
1745601952.8459046,7.494,5.124,6.747,20.479,-40.144,-133.566,0.4368,-0.24994,-0.2746,-0.81927
1745601952.846906,7.494,5.124,6.747,20.984,-40.161,-134.088,0.4368,-0.24994,-0.2746,-0.81927
1745601952.8479035,7.829,5.076,6.891,21.517,-40.177,-134.648,0.4368,-0.24994,-0.2746,-0.81927
1745601952.8489037,7.829,5.076,6.891,22.05,-40.193,-135.214,0.4368,-0.24994,-0.2746,-0.81927
1745601952.8499029,7.92,4.875,7.068,22.555,-40.177,-135.78,0.4368,-0.24994,-0.2746,-0.81927
1745601952.9330947,7.92,4.875,7.068,23.06,-40.161,-136.34,0.4368,-0.24994,-0.2746,-0.81927
1745601952.9630942,8.198,4.741,7.111,23.544,-40.111,-136.923,0.4368,-0.24994,-0.2746,-0.81927
1745601952.9640923,8.198,4.741,7.111,24.022,-40.062,-137.505,0.4368,-0.24994,-0.2746,-0.81927
1745601952.9661007,8.279,4.525,7.125,24.467,-39.941,-138.076,0.4368,-0.24994,-0.2746,-0.81927
1745601952.9670944,8.279,4.525,7.125,24.901,-39.82,-138.647,0.4368,-0.24994,-0.2746,-0.81927
1745601952.9681,7.57,4.372,7.379,25.312,-39.639,-139.197,0.4368,-0.24994,-0.2746,-0.81927
1745601952.9701004,7.57,4.372,7.379,25.719,-39.452,-139.746,0.4368,-0.24994,-0.2746,-0.81927
1745601952.971093,7.594,4.022,7.245,26.12,-39.243,-140.301,0.38458,-0.23615,-0.31061,-0.83652
1745601952.9720926,7.594,4.022,7.245,26.51,-39.034,-140.845,0.38458,-0.23615,-0.31061,-0.83652
1745601952.9730928,7.776,3.543,7.202,26.911,-38.765,-141.389,0.38458,-0.23615,-0.31061,-0.83652
1745601952.9740987,7.776,3.543,7.202,27.301,-38.496,-141.927,0.38458,-0.23615,-0.31061,-0.83652
1745601952.9750986,7.312,3.385,7.398,27.708,-38.183,-142.449,0.38458,-0.23615,-0.31061,-0.83652
1745601952.9930856,7.312,3.385,7.398,28.098,-37.87,-142.965,0.38458,-0.23615,-0.31061,-0.83652
1745601952.9950924,6.828,3.443,7.537,28.51,-37.546,-143.492,0.38458,-0.23615,-0.31061,-0.83652
1745601952.9960954,6.828,3.443,7.537,28.905,-37.222,-144.014,0.38458,-0.23615,-0.31061,-0.83652
1745601952.9980876,6.862,3.61,7.436,29.284,-36.87,-144.536,0.38458,-0.23615,-0.31061,-0.83652
1745601953.0232048,6.862,3.61,7.436,29.652,-36.519,-145.047,0.38458,-0.23615,-0.31061,-0.83652
1745601953.024196,6.503,3.898,7.47,29.987,-36.063,-145.503,0.38458,-0.23615,-0.31061,-0.83652
1745601953.0255466,6.503,3.898,7.47,30.311,-35.607,-145.948,0.38458,-0.23615,-0.31061,-0.83652
1745601953.0262043,5.808,4.851,7.254,30.597,-35.085,-146.36,0.38458,-0.23615,-0.31061,-0.83652
1745601953.0522192,5.808,4.851,7.254,30.883,-34.568,-146.761,0.38458,-0.23615,-0.31061,-0.83652
1745601953.1052253,5.248,6.732,7.029,31.13,-34.052,-147.211,0.38458,-0.23615,-0.31061,-0.83652
1745601953.1052253,5.248,6.732,7.029,31.377,-33.53,-147.656,0.38458,-0.23615,-0.31061,-0.83652
1745601953.1062295,5.377,7.331,6.958,31.602,-33.085,-148.178,0.38458,-0.23615,-0.31061,-0.83652
1745601953.112285,5.377,7.331,6.958,31.833,-32.64,-148.7,0.38458,-0.23615,-0.31061,-0.83652
1745601953.11428,5.693,7.264,6.134,32.069,-32.239,-149.343,0.38458,-0.23615,-0.31061,-0.83652
1745601953.11428,5.693,7.264,6.134,32.305,-31.833,-149.974,0.38458,-0.23615,-0.31061,-0.83652
1745601953.115278,5.655,6.967,5.837,32.574,-31.437,-150.76,0.38458,-0.23615,-0.31061,-0.83652
1745601953.2035804,5.655,6.967,5.837,32.833,-31.042,-151.54,0.38458,-0.23615,-0.31061,-0.83652
1745601953.2335835,5.416,5.669,6.359,33.129,-30.701,-152.49,0.38458,-0.23615,-0.31061,-0.83652
1745601953.2345765,5.416,5.669,6.359,33.415,-30.355,-153.435,0.38458,-0.23615,-0.31061,-0.83652
1745601953.2355845,5.713,5.013,6.421,33.701,-29.998,-154.506,0.38458,-0.23615,-0.31061,-0.83652
1745601953.236586,5.713,5.013,6.421,33.97,-29.636,-155.572,0.38458,-0.23615,-0.31061,-0.83652
1745601953.237585,5.425,5.109,6.503,34.25,-29.207,-156.714,0.38458,-0.23615,-0.31061,-0.83652
1745601953.238585,5.425,5.109,6.503,34.514,-28.779,-157.852,0.25464,-0.17813,-0.32764,-0.89215
1745601953.2395823,5.085,4.506,6.996,34.772,-28.328,-159.055,0.25464,-0.17813,-0.32764,-0.89215
1745601953.2395823,5.085,4.506,6.996,35.008,-27.867,-160.247,0.25464,-0.17813,-0.32764,-0.89215
1745601953.2405849,5.277,3.745,7.412,35.222,-27.334,-161.455,0.25464,-0.17813,-0.32764,-0.89215
1745601953.2415855,5.277,3.745,7.412,35.42,-26.796,-162.647,0.25464,-0.17813,-0.32764,-0.89215
1745601953.2425802,4.798,3.232,7.57,35.585,-26.169,-163.79,0.25464,-0.17813,-0.32764,-0.89215
1745601953.262974,4.798,3.232,7.57,35.733,-25.543,-164.921,0.25464,-0.17813,-0.32764,-0.89215
1745601953.2639794,4.329,2.643,7.666,35.865,-24.84,-166.014,0.25464,-0.17813,-0.32764,-0.89215
1745601953.2649696,4.329,2.643,7.666,35.98,-24.142,-167.091,0.25464,-0.17813,-0.32764,-0.89215
1745601953.2659712,3.232,2.327,7.671,36.107,-23.406,-168.124,0.25464,-0.17813,-0.32764,-0.89215
1745601953.2935941,3.232,2.327,7.671,36.205,-22.67,-169.146,0.25464,-0.17813,-0.32764,-0.89215
1745601953.2945933,2.174,2.102,7.633,36.31,-21.934,-170.085,0.25464,-0.17813,-0.32764,-0.89215
1745601953.29559,2.174,2.102,7.633,36.398,-21.198,-171.019,0.25464,-0.17813,-0.32764,-0.89215
1745601953.2965908,1.705,2.389,7.264,36.491,-20.522,-171.909,0.25464,-0.17813,-0.32764,-0.89215
1745601953.3532474,1.705,2.389,7.264,36.562,-19.841,-172.787,0.25464,-0.17813,-0.32764,-0.89215
1745601953.406244,1.039,2.404,7.101,36.623,-19.27,-173.655,0.25464,-0.17813,-0.32764,-0.89215
1745601953.4072454,1.039,2.404,7.101,36.672,-18.688,-174.518,0.25464,-0.17813,-0.32764,-0.89215
1745601953.4082441,0.287,2.174,7.393,36.7,-18.16,-175.27,0.25464,-0.17813,-0.32764,-0.89215
1745601953.4121683,0.287,2.174,7.393,36.716,-17.628,-176.023,0.25464,-0.17813,-0.32764,-0.89215
1745601953.4121683,-0.029,2.27,7.211,36.716,-17.155,-176.655,0.25464,-0.17813,-0.32764,-0.89215
1745601953.413168,-0.029,2.27,7.211,36.705,-16.677,-177.281,0.25464,-0.17813,-0.32764,-0.89215
1745601953.414166,-0.12,2.308,7.475,36.667,-16.293,-177.83,0.25464,-0.17813,-0.32764,-0.89215
1745601953.4151692,-0.12,2.308,7.475,36.623,-15.897,-178.374,0.25464,-0.17813,-0.32764,-0.89215
1745601953.41616,-1.211,1.935,7.527,36.579,-15.699,-178.907,0.25464,-0.17813,-0.32764,-0.89215
1745601953.41616,-1.211,1.935,7.527,36.524,-15.491,-179.434,0.25464,-0.17813,-0.32764,-0.89215
1745601953.4171689,-0.79,2.677,7.499,36.458,-15.419,-179.912,0.25464,-0.17813,-0.32764,-0.89215
1745601953.4744081,-0.79,2.677,7.499,36.392,-15.342,179.604,0.25464,-0.17813,-0.32764,-0.89215
1745601953.5044413,0.144,2.653,7.685,36.31,-15.282,179.33,0.25464,-0.17813,-0.32764,-0.89215
1745601953.5053442,0.144,2.653,7.685,36.227,-15.216,179.061,0.25464,-0.17813,-0.32764,-0.89215
1745601953.5063527,0.369,2.921,8.102,36.118,-15.134,178.995,0.25464,-0.17813,-0.32764,-0.89215
1745601953.508351,0.369,2.921,8.102,36.013,-15.051,178.929,0.03256,-0.1279,-0.30618,-0.94272
1745601953.5093446,0.235,4.554,8.102,35.859,-14.963,179.022,0.03256,-0.1279,-0.30618,-0.94272
1745601953.510345,0.235,4.554,8.102,35.717,-14.875,179.116,0.03256,-0.1279,-0.30618,-0.94272
1745601953.511349,0.335,5.267,8.207,35.579,-14.87,179.269,0.03256,-0.1279,-0.30618,-0.94272
1745601953.5323482,0.335,5.267,8.207,35.453,-14.859,179.423,0.03256,-0.1279,-0.30618,-0.94272
1745601953.5333545,0.613,5.186,8.236,35.392,-14.963,179.55,0.03256,-0.1279,-0.30618,-0.94272
1745601953.534351,0.613,5.186,8.236,35.332,-15.068,179.676,0.03256,-0.1279,-0.30618,-0.94272
1745601953.5353518,1.499,5.593,8.528,35.321,-15.238,179.775,0.03256,-0.1279,-0.30618,-0.94272
1745601953.593859,1.499,5.593,8.528,35.316,-15.414,179.874,0.03256,-0.1279,-0.30618,-0.94272
1745601953.689858,1.92,5.78,8.38,35.359,-15.579,-179.984,0.03256,-0.1279,-0.30618,-0.94272
1745601953.689858,1.92,5.78,8.38,35.409,-15.743,-179.846,0.03256,-0.1279,-0.30618,-0.94272
1745601953.6908545,2.337,5.827,8.279,35.48,-15.853,-179.703,0.03256,-0.1279,-0.30618,-0.94272
1745601953.6908545,2.337,5.827,8.279,35.557,-15.963,-179.561,0.03256,-0.1279,-0.30618,-0.94272
1745601953.6918561,1.7,5.65,8.231,35.651,-16.029,-179.423,0.03256,-0.1279,-0.30618,-0.94272
1745601953.6918561,1.7,5.65,8.231,35.744,-16.095,-179.286,0.03256,-0.1279,-0.30618,-0.94272
1745601953.6918561,1.427,5.947,8.011,35.87,-16.205,-179.209,0.03256,-0.1279,-0.30618,-0.94272
1745601953.6928556,1.427,5.947,8.011,35.991,-16.309,-179.138,0.03256,-0.1279,-0.30618,-0.94272
1745601953.6928556,2.188,5.765,7.949,36.129,-16.43,-179.099,0.03256,-0.1279,-0.30618,-0.94272
1745601953.6938553,2.188,5.765,7.949,36.266,-16.551,-179.061,0.03256,-0.1279,-0.30618,-0.94272
1745601953.6938553,2.097,5.325,7.968,36.403,-16.584,-178.956,0.03256,-0.1279,-0.30618,-0.94272
1745601953.7129405,2.097,5.325,7.968,36.535,-16.617,-178.846,0.03256,-0.1279,-0.30618,-0.94272
1745601953.7352915,1.757,5.478,7.728,36.623,-16.584,-178.671,0.03256,-0.1279,-0.30618,-0.94272
1745601953.735945,1.757,5.478,7.728,36.711,-16.545,-178.495,0.03256,-0.1279,-0.30618,-0.94272
1745601953.736943,1.532,5.823,7.259,36.777,-16.496,-178.314,0.03256,-0.1279,-0.30618,-0.94272
1745601953.7439473,1.532,5.823,7.259,36.848,-16.447,-178.138,0.03256,-0.1279,-0.30618,-0.94272
1745601953.7449381,1.595,5.914,6.699,36.92,-16.436,-178.006,0.03256,-0.1279,-0.30618,-0.94272
1745601953.745952,1.595,5.914,6.699,36.991,-16.419,-177.874,0.03256,-0.1279,-0.30618,-0.94272
1745601953.746955,1.111,6.12,6.728,37.04,-16.436,-177.77,0.06265,-0.12961,-0.31641,-0.93759
1745601953.7735174,1.111,6.12,6.728,37.095,-16.452,-177.665,0.06265,-0.12961,-0.31641,-0.93759
1745601953.7741652,1.312,5.813,6.656,37.134,-16.551,-177.599,0.06265,-0.12961,-0.31641,-0.93759
1745601953.7761648,1.312,5.813,6.656,37.178,-16.644,-177.539,0.06265,-0.12961,-0.31641,-0.93759
1745601953.777164,1.681,5.282,6.306,37.222,-16.793,-177.517,0.06265,-0.12961,-0.31641,-0.93759
1745601953.8332121,1.681,5.282,6.306,37.271,-16.941,-177.495,0.06265,-0.12961,-0.31641,-0.93759
1745601953.8899581,1.092,4.535,5.588,37.31,-17.106,-177.473,0.06265,-0.12961,-0.31641,-0.93759
1745601953.890959,1.092,4.535,5.588,37.354,-17.265,-177.451,0.06265,-0.12961,-0.31641,-0.93759
1745601953.890959,0.646,3.486,4.357,37.386,-17.507,-177.435,0.06265,-0.12961,-0.31641,-0.93759
1745601953.9231973,0.646,3.486,4.357,37.419,-17.743,-177.418,0.06265,-0.12961,-0.31641,-0.93759
1745601953.9242067,-0.536,1.422,1.92,37.425,-18.149,-177.347,0.06265,-0.12961,-0.31641,-0.93759
1745601953.925202,-3.989,-2.049,-1.508,37.408,-18.726,-177.182,0.06265,-0.12961,-0.31641,-0.93759
1745601953.9262035,-3.989,-2.049,-1.508,37.365,-19.473,-176.924,0.06265,-0.12961,-0.31641,-0.93759
1745601953.9282162,-8.198,-7.652,-6.134,37.2,-20.473,-176.44,0.06265,-0.12961,-0.31641,-0.93759
1745601953.929202,-8.198,-7.652,-6.134,36.881,-21.687,-175.721,0.06265,-0.12961,-0.31641,-0.93759
1745601953.9302037,-11.502,-16.625,-10.755,36.189,-23.187,-174.661,0.06265,-0.12961,-0.31641,-0.93759
1745601953.9312017,-46.017,-66.501,-43.033,35.31,-24.824,-173.458,0.06265,-0.12961,-0.31641,-0.93759
1745601953.9536839,-8.638,-30.014,-9.462,33.953,-26.779,-171.738,0.06265,-0.12961,-0.31641,-0.93759
1745601953.9829855,-8.638,-30.014,-9.462,31.932,-29.059,-169.415,0.06265,-0.12961,-0.31641,-0.93759
1745601953.9839742,-4.434,-41.444,-7.92,28.779,-32.151,-165.756,0.06265,-0.12961,-0.31641,-0.93759
1745601953.9849746,-4.434,-41.444,-7.92,24.104,-35.837,-160.428,0.06265,-0.12961,-0.31641,-0.93759
1745601953.9859753,3.5,-44.451,-4.444,18.001,-39.1,-153.325,0.22144,-0.26273,-0.24692,-0.90601
1745601953.986972,3.5,-44.451,-4.444,10.322,-41.567,-144.316,0.22144,-0.26273,-0.24692,-0.90601
1745601953.9879723,9.687,-48.856,0.685,0.665,-42.759,-133.22,0.22144,-0.26273,-0.24692,-0.90601
1745601953.9879723,9.687,-48.856,0.685,-10.371,-42.056,-120.635,0.22144,-0.26273,-0.24692,-0.90601
1745601954.0436819,0.263,-68.608,5.401,-21.676,-38.925,-107.743,0.22144,-0.26273,-0.24692,-0.90601
1745601954.044686,0.263,-68.608,5.401,-32.031,-33.223,-95.707,0.22144,-0.26273,-0.24692,-0.90601
1745601954.0456836,12.929,-110.148,20.207,-40.501,-26.719,-85.166,0.22144,-0.26273,-0.24692,-0.90601
1745601954.046683,12.929,-110.148,20.207,-47.444,-19.715,-75.674,0.22144,-0.26273,-0.24692,-0.90601
1745601954.0735252,23.741,-122.626,18.1,-52.482,-13.645,-66.313,0.22144,-0.26273,-0.24692,-0.90601
1745601954.1258876,23.741,-122.626,18.1,-56.091,-8.696,-56.481,0.22144,-0.26273,-0.24692,-0.90601
1745601954.1265306,50.379,-108.328,22.338,-57.739,-4.021,-47.51,0.22144,-0.26273,-0.24692,-0.90601
1745601954.127534,50.379,-108.328,22.338,-57.689,-0.005,-39.1,0.22144,-0.26273,-0.24692,-0.90601
1745601954.1285286,58.031,-85.621,27.495,-56.255,4.642,-32.195,0.22144,-0.26273,-0.24692,-0.90601
1745601954.1285286,58.031,-85.621,27.495,-53.492,9.778,-26.581,0.22144,-0.26273,-0.24692,-0.90601
1745601954.1295302,39.337,-73.277,20.365,-50.131,14.744,-20.852,0.22144,-0.26273,-0.24692,-0.90601
1745601954.130532,39.337,-73.277,20.365,-46.137,19.501,-14.919,0.22144,-0.26273,-0.24692,-0.90601
1745601954.163378,51.758,-62.206,16.17,-41.457,23.527,-8.696,0.22144,-0.26273,-0.24692,-0.90601
1745601954.165382,51.758,-62.206,16.17,-36.167,26.757,-2.208,0.22144,-0.26273,-0.24692,-0.90601
1745601954.1663861,38.173,-49.277,12.258,-30.553,29.811,3.972,0.22144,-0.26273,-0.24692,-0.90601
1745601954.1673849,38.173,-49.277,12.258,-24.598,32.739,9.882,0.22144,-0.26273,-0.24692,-0.90601
1745601954.1934814,35.784,-42.454,6.019,-18.336,35.063,15.914,0.22144,-0.26273,-0.24692,-0.90601
1745601954.2224846,35.784,-42.454,6.019,-11.871,36.799,21.962,0.22144,-0.26273,-0.24692,-0.90601
1745601954.224481,35.228,-35.156,0.215,-5.471,38.018,27.999,0.22144,-0.26273,-0.24692,-0.90601
1745601954.2254825,35.228,-35.156,0.215,0.753,38.771,33.926,0.9079,-0.10669,0.31213,0.25839
1745601954.2264817,33.117,-27.687,-2.04,6.801,38.87,39.661,0.9079,-0.10669,0.31213,0.25839
1745601954.2284856,33.117,-27.687,-2.04,12.513,38.375,45.055,0.9079,-0.10669,0.31213,0.25839
1745601954.229483,29.899,-18.68,-5.464,17.677,37.474,49.763,0.9079,-0.10669,0.31213,0.25839
1745601954.230479,29.899,-18.68,-5.464,22.264,36.293,53.745,0.9079,-0.10669,0.31213,0.25839
1745601954.2843459,28.86,-9.452,-8.471,26.439,35.222,57.294,0.9079,-0.10669,0.31213,0.25839
1745601954.2852993,28.86,-9.452,-8.471,30.251,34.327,60.469,0.9079,-0.10669,0.31213,0.25839
1745601954.2871575,23.779,-1.978,-11.023,33.739,33.393,63.309,0.9079,-0.10669,0.31213,0.25839
1745601954.2881658,23.779,-1.978,-11.023,36.909,32.465,65.825,0.9079,-0.10669,0.31213,0.25839
1745601954.313258,20.078,5.162,-12.191,39.551,31.404,67.626,0.9079,-0.10669,0.31213,0.25839
1745601954.365249,20.078,5.162,-12.191,43.11,29.872,69.824,0.9079,-0.10669,0.31213,0.25839
1745601954.365249,18.852,9.007,-11.698,46.176,28.427,71.554,0.9079,-0.10669,0.31213,0.25839
1745601954.3662462,18.852,9.007,-11.698,48.785,27.114,72.856,0.9079,-0.10669,0.31213,0.25839
1745601954.372672,14.212,10.76,-11.085,51.086,25.988,73.987,0.9079,-0.10669,0.31213,0.25839
1745601954.3733125,14.212,10.76,-11.085,53.108,25.065,74.971,0.9079,-0.10669,0.31213,0.25839
1745601954.3743093,9.744,11.578,-9.414,54.816,24.274,75.729,0.9079,-0.10669,0.31213,0.25839
1745601954.3743093,9.744,11.578,-9.414,56.228,23.637,76.273,0.9079,-0.10669,0.31213,0.25839
1745601954.404075,6.416,11.818,-7.274,57.448,23.132,76.69,0.9079,-0.10669,0.31213,0.25839
1745601954.40473,6.416,11.818,-7.274,58.475,22.775,76.981,0.9079,-0.10669,0.31213,0.25839
1745601954.4057262,3.151,11.152,-4.616,59.392,22.549,77.278,0.9079,-0.10669,0.31213,0.25839
1745601954.4067295,3.151,11.152,-4.616,60.2,22.456,77.596,0.9079,-0.10669,0.31213,0.25839
1745601954.433323,0.062,10.707,-2.246,60.925,22.423,77.937,0.9079,-0.10669,0.31213,0.25839
1745601954.463671,0.062,10.707,-2.246,61.567,22.462,78.305,0.9079,-0.10669,0.31213,0.25839
1745601954.4653842,-1.93,9.912,0.12,62.128,22.484,78.602,0.9079,-0.10669,0.31213,0.25839
1745601954.4663208,-1.93,9.912,0.12,62.617,22.5,78.832,0.71274,0.28687,0.45105,0.45401
1745601954.4673152,-3.448,9.4,1.858,63.023,22.505,78.992,0.71274,0.28687,0.45105,0.45401
1745601954.46832,-3.448,9.4,1.858,63.358,22.511,79.085,0.71274,0.28687,0.45105,0.45401
1745601954.4693208,-3.883,9.716,3.85,63.649,22.527,79.211,0.71274,0.28687,0.45105,0.45401
1745601954.4713242,-3.883,9.716,3.85,63.88,22.566,79.387,0.71274,0.28687,0.45105,0.45401
1745601954.5234811,-4.022,8.993,4.98,64.1,22.648,79.667,0.71274,0.28687,0.45105,0.45401
1745601954.524491,-4.022,8.993,4.98,64.292,22.786,80.052,0.71274,0.28687,0.45105,0.45401
1745601954.5254896,-4.472,8.681,4.922,64.44,22.945,80.519,0.71274,0.28687,0.45105,0.45401
1745601954.526494,-4.472,8.681,4.922,64.545,23.121,81.046,0.71274,0.28687,0.45105,0.45401
1745601954.5539496,-4.429,8.073,5.363,64.572,23.264,81.562,0.71274,0.28687,0.45105,0.45401
1745601954.6079478,-4.429,8.073,5.363,64.528,23.368,82.046,0.71274,0.28687,0.45105,0.45401
1745601954.608945,-3.467,7.819,5.818,64.424,23.461,82.507,0.71274,0.28687,0.45105,0.45401
1745601954.6099455,-3.467,7.819,5.818,64.265,23.527,82.93,0.71274,0.28687,0.45105,0.45401
1745601954.6109514,-3.026,7.537,5.918,64.094,23.632,83.419,0.71274,0.28687,0.45105,0.45401
1745601954.6119487,-3.026,7.537,5.918,63.918,23.774,83.958,0.71274,0.28687,0.45105,0.45401
1745601954.6119487,-3.955,6.924,5.502,63.737,23.928,84.523,0.71274,0.28687,0.45105,0.45401
1745601954.6129549,-3.955,6.924,5.502,63.556,24.104,85.106,0.71274,0.28687,0.45105,0.45401
1745601954.6437752,-4.123,6.416,5.018,63.369,24.285,85.666,0.71274,0.28687,0.45105,0.45401
1745601954.645684,-4.123,6.416,5.018,63.177,24.467,86.204,0.71274,0.28687,0.45105,0.45401
1745601954.645684,-4.482,6.278,4.985,62.952,24.637,86.682,0.71274,0.28687,0.45105,0.45401
1745601954.648242,-4.482,6.278,4.985,62.71,24.791,87.094,0.71274,0.28687,0.45105,0.45401
1745601954.674069,-4.592,6.924,5.531,62.424,24.944,87.462,0.71274,0.28687,0.45105,0.45401
1745601954.7030573,-4.592,6.924,5.531,62.106,25.087,87.775,0.71274,0.28687,0.45105,0.45401
1745601954.7040596,-4.42,6.187,6.325,61.782,25.258,88.138,0.71274,0.28687,0.45105,0.45401
1745601954.7050588,-4.42,6.187,6.325,61.452,25.455,88.539,0.67969,0.22943,0.48325,0.50174
1745601954.7060614,-5.928,6.043,6.436,61.139,25.653,88.956,0.67969,0.22943,0.48325,0.50174
1745601954.707062,-5.928,6.043,6.436,60.837,25.862,89.39,0.67969,0.22943,0.48325,0.50174
1745601954.7080667,-5.918,5.866,6.474,60.513,26.043,89.769,0.67969,0.22943,0.48325,0.50174
1745601954.709065,-5.918,5.866,6.474,60.156,26.191,90.088,0.67969,0.22943,0.48325,0.50174
1745601954.794341,-6.139,5.727,6.847,59.804,26.351,90.412,0.67969,0.22943,0.48325,0.50174
1745601954.859335,-6.139,5.727,6.847,59.453,26.51,90.736,0.67969,0.22943,0.48325,0.50174
1745601954.8603318,-6.507,5.382,7.192,59.134,26.686,91.11,0.67969,0.22943,0.48325,0.50174
1745601954.8613296,-6.507,5.382,7.192,58.854,26.867,91.533,0.67969,0.22943,0.48325,0.50174
1745601954.8623307,-7.106,5.258,6.972,58.59,27.032,91.967,0.67969,0.22943,0.48325,0.50174
1745601954.863338,-7.106,5.258,6.972,58.343,27.175,92.401,0.67969,0.22943,0.48325,0.50174
1745601954.8643298,-6.598,4.865,6.756,58.09,27.301,92.802,0.67969,0.22943,0.48325,0.50174
1745601954.8653362,-6.598,4.865,6.756,57.832,27.4,93.175,0.67969,0.22943,0.48325,0.50174
1745601954.8663368,-6.68,4.899,6.512,57.585,27.499,93.532,0.67969,0.22943,0.48325,0.50174
1745601954.8673306,-6.68,4.899,6.512,57.338,27.592,93.862,0.67969,0.22943,0.48325,0.50174
1745601954.8683305,-6.627,5.286,6.531,57.101,27.686,94.18,0.67969,0.22943,0.48325,0.50174
1745601954.869337,-6.627,5.286,6.531,56.876,27.768,94.488,0.67969,0.22943,0.48325,0.50174
1745601954.8833246,-6.924,5.286,6.445,56.673,27.839,94.812,0.67969,0.22943,0.48325,0.50174
1745601954.8833246,-6.924,5.286,6.445,56.492,27.894,95.153,0.67969,0.22943,0.48325,0.50174
1745601954.8843272,-6.393,5.42,6.306,56.31,27.927,95.477,0.67969,0.22943,0.48325,0.50174
1745601954.8853261,-6.393,5.42,6.306,56.135,27.938,95.779,0.67969,0.22943,0.48325,0.50174
1745601954.9132166,-5.995,5.397,6.254,55.953,27.944,96.064,0.67969,0.22943,0.48325,0.50174
1745601954.9262197,-5.995,5.397,6.254,55.778,27.949,96.334,0.67969,0.22943,0.48325,0.50174
1745601954.9272184,-6.369,5.516,6.139,55.596,27.944,96.586,0.67969,0.22943,0.48325,0.50174
1745601954.9282172,-6.369,5.516,6.139,55.415,27.927,96.812,0.65515,0.1416,0.47995,0.56589
1745601954.9435995,-5.784,5.622,6.139,55.234,27.883,97.026,0.65515,0.1416,0.47995,0.56589
1745601954.9446027,-5.784,5.622,6.139,55.047,27.823,97.218,0.65515,0.1416,0.47995,0.56589
1745601954.9456148,-5.315,5.593,5.99,54.877,27.768,97.427,0.65515,0.1416,0.47995,0.56589
1745601954.9456148,-5.315,5.593,5.99,54.712,27.719,97.646,0.65515,0.1416,0.47995,0.56589
1745601955.0033338,-5.392,5.741,6.038,54.553,27.675,97.861,0.65515,0.1416,0.47995,0.56589
1745601955.0043364,-5.392,5.741,6.038,54.393,27.631,98.08,0.65515,0.1416,0.47995,0.56589
1745601955.0063365,-5.239,5.727,6.033,54.229,27.587,98.267,0.65515,0.1416,0.47995,0.56589
1745601955.0073385,-5.239,5.727,6.033,54.064,27.543,98.459,0.65515,0.1416,0.47995,0.56589
1745601955.0337389,-4.951,5.559,6.076,53.904,27.51,98.641,0.65515,0.1416,0.47995,0.56589
1745601955.0913942,-4.951,5.559,6.076,53.745,27.477,98.822,0.65515,0.1416,0.47995,0.56589
1745601955.0924008,-5.052,5.416,6.091,53.597,27.466,99.003,0.65515,0.1416,0.47995,0.56589
1745601955.0924008,-5.052,5.416,6.091,53.448,27.46,99.185,0.65515,0.1416,0.47995,0.56589
1745601955.093399,-5.181,5.574,6.053,53.306,27.466,99.388,0.65515,0.1416,0.47995,0.56589
1745601955.0944004,-5.181,5.574,6.053,53.163,27.477,99.591,0.65515,0.1416,0.47995,0.56589
1745601955.0944004,-5.272,5.684,5.971,53.036,27.521,99.827,0.65515,0.1416,0.47995,0.56589
1745601955.095398,-5.272,5.684,5.971,52.916,27.565,100.063,0.65515,0.1416,0.47995,0.56589
1745601955.123441,-5.377,5.698,5.957,52.795,27.62,100.316,0.65515,0.1416,0.47995,0.56589
1745601955.124474,-5.377,5.698,5.957,52.674,27.675,100.569,0.65515,0.1416,0.47995,0.56589
1745601955.1254494,-5.511,5.492,5.952,52.548,27.735,100.849,0.65515,0.1416,0.47995,0.56589
1745601955.126446,-5.511,5.492,5.952,52.421,27.795,101.129,0.65515,0.1416,0.47995,0.56589
1745601955.1532204,-5.564,5.569,6.024,52.289,27.861,101.404,0.65515,0.1416,0.47995,0.56589
1745601955.1822274,-5.564,5.569,6.024,52.158,27.927,101.673,0.65515,0.1416,0.47995,0.56589
1745601955.1822274,-5.76,5.54,6.014,52.037,27.982,101.931,0.65515,0.1416,0.47995,0.56589
1745601955.1842182,-5.76,5.54,6.014,51.916,28.043,102.195,0.6315,0.09924,0.46747,0.6105
1745601955.2132826,-5.617,5.531,6.014,51.779,28.065,102.415,0.6315,0.09924,0.46747,0.6105
1745601955.214922,-5.617,5.531,6.014,51.647,28.092,102.629,0.6315,0.09924,0.46747,0.6105
1745601955.2160275,-5.617,5.689,6.067,51.509,28.109,102.859,0.6315,0.09924,0.46747,0.6105
1745601955.216929,-5.617,5.689,6.067,51.378,28.125,103.09,0.6315,0.09924,0.46747,0.6105
1745601955.2433941,-5.823,5.856,6.12,51.24,28.125,103.321,0.6315,0.09924,0.46747,0.6105
1745601955.244385,-2.911,2.926,3.06,51.108,28.125,103.552,0.6315,0.09924,0.46747,0.6105
1745601955.2463794,-5.531,5.789,6.258,50.977,28.114,103.804,0.6315,0.09924,0.46747,0.6105
1745601955.247387,-5.531,5.789,6.258,50.839,28.109,104.057,0.6315,0.09924,0.46747,0.6105
1745601955.2724075,-5.507,5.631,6.393,50.718,28.092,104.321,0.6315,0.09924,0.46747,0.6105
1745601955.3274066,-5.507,5.631,6.393,50.592,28.081,104.584,0.6315,0.09924,0.46747,0.6105
1745601955.3284075,-5.622,5.583,6.402,50.46,28.048,104.826,0.6315,0.09924,0.46747,0.6105
1745601955.3294146,-5.622,5.583,6.402,50.328,28.015,105.062,0.6315,0.09924,0.46747,0.6105
1745601955.3334134,-5.363,5.617,6.373,50.197,27.966,105.282,0.6315,0.09924,0.46747,0.6105
1745601955.3344064,-5.363,5.617,6.373,50.065,27.911,105.502,0.6315,0.09924,0.46747,0.6105
1745601955.3344064,-5.028,5.732,6.302,49.933,27.861,105.716,0.6315,0.09924,0.46747,0.6105
1745601955.335415,-5.028,5.732,6.302,49.807,27.806,105.93,0.6315,0.09924,0.46747,0.6105
1745601955.3629487,-4.98,5.789,6.282,49.686,27.768,106.161,0.6315,0.09924,0.46747,0.6105
1745601955.364946,-4.98,5.789,6.282,49.57,27.724,106.397,0.6315,0.09924,0.46747,0.6105
1745601955.3659475,-4.99,5.789,6.268,49.449,27.697,106.633,0.6315,0.09924,0.46747,0.6105
1745601955.3669474,-4.99,5.789,6.268,49.334,27.664,106.87,0.6315,0.09924,0.46747,0.6105
1745601955.3943393,-4.779,5.799,6.263,49.23,27.642,107.1,0.6315,0.09924,0.46747,0.6105
1745601955.423333,-4.779,5.799,6.263,49.125,27.625,107.336,0.6315,0.09924,0.46747,0.6105
1745601955.425333,-4.812,5.799,6.211,49.032,27.614,107.573,0.60251,0.06351,0.45361,0.6535
1745601955.425333,-4.812,5.799,6.211,48.939,27.609,107.809,0.60251,0.06351,0.45361,0.6535
1745601955.4542177,-4.731,5.775,6.144,48.84,27.598,108.029,0.60251,0.06351,0.45361,0.6535
1745601955.4552317,-4.731,5.775,6.144,48.746,27.592,108.243,0.60251,0.06351,0.45361,0.6535
1745601955.4562254,-4.659,5.607,6.22,48.642,27.587,108.435,0.60251,0.06351,0.45361,0.6535
1745601955.4572227,-4.659,5.607,6.22,48.538,27.581,108.627,0.60251,0.06351,0.45361,0.6535
1745601955.4834275,-4.865,5.502,6.258,48.444,27.576,108.792,0.60251,0.06351,0.45361,0.6535
1745601955.48442,-4.865,5.502,6.258,48.351,27.576,108.957,0.60251,0.06351,0.45361,0.6535
1745601955.4864206,-4.894,5.708,6.182,48.252,27.57,109.089,0.60251,0.06351,0.45361,0.6535
1745601955.4874234,-4.894,5.708,6.182,48.153,27.559,109.226,0.60251,0.06351,0.45361,0.6535
1745601955.5129135,-4.741,5.669,6.249,48.049,27.559,109.358,0.60251,0.06351,0.45361,0.6535
1745601955.5718982,-4.741,5.669,6.249,47.944,27.565,109.495,0.60251,0.06351,0.45361,0.6535
1745601955.5729,-4.788,5.574,6.321,47.845,27.592,109.655,0.60251,0.06351,0.45361,0.6535
1745601955.5729,-4.788,5.574,6.321,47.747,27.62,109.819,0.60251,0.06351,0.45361,0.6535
1745601955.6024592,-4.961,5.416,6.378,47.653,27.68,110.012,0.60251,0.06351,0.45361,0.6535
1745601955.6034584,-4.961,5.416,6.378,47.56,27.74,110.198,0.60251,0.06351,0.45361,0.6535
1745601955.6034584,-5.301,5.449,6.34,47.472,27.806,110.402,0.60251,0.06351,0.45361,0.6535
1745601955.6044588,-5.301,5.449,6.34,47.384,27.872,110.594,0.60251,0.06351,0.45361,0.6535
1745601955.6044588,-5.406,5.416,6.316,47.302,27.927,110.781,0.60251,0.06351,0.45361,0.6535
1745601955.6054583,-5.406,5.416,6.316,47.214,27.988,110.973,0.60251,0.06351,0.45361,0.6535
1745601955.6054583,-5.397,5.315,6.316,47.131,28.043,111.149,0.60251,0.06351,0.45361,0.6535
1745601955.606458,-5.397,5.315,6.316,47.049,28.098,111.319,0.60251,0.06351,0.45361,0.6535
1745601955.6326606,-5.516,5.296,6.302,46.956,28.158,111.495,0.60251,0.06351,0.45361,0.6535
1745601955.6436555,-5.516,5.296,6.302,46.862,28.218,111.66,0.60251,0.06351,0.45361,0.6535
1745601955.6446612,-5.665,5.248,6.436,46.774,28.29,111.841,0.57947,0.0307,0.44458,0.68228
1745601955.6446612,-5.665,5.248,6.436,46.681,28.361,112.017,0.57947,0.0307,0.44458,0.68228
1745601955.6934974,-5.895,5.262,6.388,46.615,28.449,112.22,0.57947,0.0307,0.44458,0.68228
1745601955.6945064,-5.895,5.262,6.388,46.544,28.542,112.423,0.57947,0.0307,0.44458,0.68228
1745601955.6955075,-5.832,5.454,6.287,46.489,28.63,112.654,0.57947,0.0307,0.44458,0.68228
1745601955.696514,-5.832,5.454,6.287,46.428,28.724,112.885,0.57947,0.0307,0.44458,0.68228
1745601955.7235029,-5.804,5.368,6.22,46.379,28.806,113.132,0.57947,0.0307,0.44458,0.68228
1745601955.7255063,-5.804,5.368,6.22,46.329,28.883,113.368,0.57947,0.0307,0.44458,0.68228
1745601955.72651,-5.746,5.411,6.22,46.263,28.922,113.588,0.57947,0.0307,0.44458,0.68228
1745601955.7275062,-5.746,5.411,6.22,46.203,28.965,113.796,0.57947,0.0307,0.44458,0.68228
1745601955.7533174,-5.545,5.545,6.124,46.121,28.982,113.978,0.57947,0.0307,0.44458,0.68228
1745601955.8053122,-5.545,5.545,6.124,46.044,28.998,114.159,0.57947,0.0307,0.44458,0.68228
1745601955.8063061,-5.344,5.569,6.105,45.95,29.004,114.351,0.56583,0.01169,0.44278,0.69534
1745601955.8063061,-5.344,5.569,6.105,45.857,29.015,114.538,0.56583,0.01169,0.44278,0.69534
1745601955.813327,-5.329,5.401,6.187,45.769,29.042,114.769,0.56583,0.01169,0.44278,0.69534
1745601955.8141398,-5.329,5.401,6.187,45.681,29.064,115.005,0.56583,0.01169,0.44278,0.69534
1745601955.815137,-5.468,5.282,6.225,45.615,29.097,115.247,0.56583,0.01169,0.44278,0.69534
1745601955.816137,-5.468,5.282,6.225,45.549,29.125,115.494,0.56583,0.01169,0.44278,0.69534
1745601955.8431952,-5.215,5.401,6.062,45.478,29.147,115.719,0.56583,0.01169,0.44278,0.69534
1745601955.8441901,-5.215,5.401,6.062,45.401,29.163,115.95,0.56583,0.01169,0.44278,0.69534
1745601955.8451931,-5.076,5.325,6.014,45.319,29.185,116.175,0.56583,0.01169,0.44278,0.69534
1745601955.8461933,-5.076,5.325,6.014,45.236,29.207,116.395,0.56583,0.01169,0.44278,0.69534
1745601955.8732393,-5.215,5.325,6.11,45.148,29.235,116.625,0.56583,0.01169,0.44278,0.69534
1745601955.9172497,-5.215,5.325,6.11,45.066,29.262,116.856,0.56583,0.01169,0.44278,0.69534
1745601955.9182398,-5.21,5.148,6.225,44.984,29.284,117.076,0.56583,0.01169,0.44278,0.69534
1745601955.9192464,-5.21,5.148,6.225,44.901,29.306,117.296,0.56583,0.01169,0.44278,0.69534
1745601955.9322457,-5.248,5.44,6.22,44.802,29.323,117.493,0.56583,0.01169,0.44278,0.69534
1745601955.933248,-5.248,5.44,6.22,44.709,29.344,117.691,0.54587,-0.00943,0.43634,0.71515
1745601955.9342523,-5.195,5.693,6.349,44.615,29.355,117.916,0.54587,-0.00943,0.43634,0.71515
1745601955.9342523,-5.195,5.693,6.349,44.522,29.372,118.141,0.54587,-0.00943,0.43634,0.71515
1745601955.9625437,-5.119,5.306,6.555,44.44,29.377,118.389,0.54587,-0.00943,0.43634,0.71515
1745601955.963543,-5.119,5.306,6.555,44.357,29.383,118.63,0.54587,-0.00943,0.43634,0.71515
1745601955.9645422,-5.023,5.267,6.589,44.275,29.388,118.867,0.54587,-0.00943,0.43634,0.71515
1745601955.9655423,-5.023,5.267,6.589,44.198,29.394,119.097,0.54587,-0.00943,0.43634,0.71515
1745601955.9937718,-5.224,5.411,6.642,44.116,29.41,119.333,0.54587,-0.00943,0.43634,0.71515
1745601956.0445857,-5.224,5.411,6.642,44.033,29.427,119.57,0.54587,-0.00943,0.43634,0.71515
1745601956.0445857,-5.564,5.291,6.742,43.956,29.449,119.806,0.54587,-0.00943,0.43634,0.71515
1745601956.0455804,-5.564,5.291,6.742,43.879,29.465,120.048,0.54587,-0.00943,0.43634,0.71515
1745601956.0525825,-5.641,5.535,6.924,43.819,29.498,120.311,0.54587,-0.00943,0.43634,0.71515
1745601956.0525825,-5.641,5.535,6.924,43.753,29.526,120.569,0.54587,-0.00943,0.43634,0.71515
1745601956.0535789,-5.708,5.425,7.005,43.726,29.586,120.883,0.54587,-0.00943,0.43634,0.71515
1745601956.0535789,-5.708,5.425,7.005,43.698,29.641,121.196,0.54587,-0.00943,0.43634,0.71515
1745601956.083774,-6.067,5.363,6.934,43.687,29.691,121.525,0.54587,-0.00943,0.43634,0.71515
1745601956.0847836,-6.067,5.363,6.934,43.671,29.74,121.844,0.54587,-0.00943,0.43634,0.71515
1745601956.085783,-6.115,5.171,6.919,43.66,29.756,122.141,0.54587,-0.00943,0.43634,0.71515
1745601956.0867803,-6.115,5.171,6.919,43.649,29.773,122.432,0.51752,-0.03476,0.42984,0.73898
1745601956.113232,-5.942,5.349,6.761,43.654,29.773,122.717,0.51752,-0.03476,0.42984,0.73898
1745601956.1652236,-5.76,5.679,6.488,43.665,29.762,122.997,0.51752,-0.03476,0.42984,0.73898
1745601956.166226,-5.76,5.679,6.488,43.676,29.751,123.283,0.51752,-0.03476,0.42984,0.73898
1745601956.167215,-5.406,5.564,6.407,43.693,29.734,123.563,0.51752,-0.03476,0.42984,0.73898
1745601956.1725554,-5.406,5.564,6.407,43.709,29.718,123.849,0.51752,-0.03476,0.42984,0.73898
1745601956.1732008,-5.171,5.301,6.325,43.726,29.702,124.135,0.51752,-0.03476,0.42984,0.73898
1745601956.174201,-5.171,5.301,6.325,43.753,29.702,124.415,0.51752,-0.03476,0.42984,0.73898
1745601956.1752005,-5.191,5.473,5.88,43.775,29.702,124.678,0.51752,-0.03476,0.42984,0.73898
1745601956.2030427,-5.191,5.473,5.88,43.792,29.707,124.92,0.51752,-0.03476,0.42984,0.73898
1745601956.2050376,-5.224,5.507,5.713,43.813,29.724,125.156,0.51752,-0.03476,0.42984,0.73898
1745601956.2050376,-5.224,5.507,5.713,43.835,29.751,125.387,0.51752,-0.03476,0.42984,0.73898
1745601956.2070367,-5.215,5.401,5.54,43.857,29.784,125.607,0.51752,-0.03476,0.42984,0.73898
1745601956.2340102,-5.215,5.401,5.54,43.885,29.828,125.821,0.51752,-0.03476,0.42984,0.73898
1745601956.2630136,-5.138,5.555,5.277,43.901,29.877,126.024,0.51752,-0.03476,0.42984,0.73898
1745601956.2640052,-5.138,5.555,5.277,43.912,29.927,126.211,0.49249,-0.04913,0.43033,0.75479
1745601956.265013,-5.329,5.516,5.148,43.912,29.976,126.387,0.49249,-0.04913,0.43033,0.75479
1745601956.2931354,-5.329,5.516,5.148,43.901,30.031,126.546,0.49249,-0.04913,0.43033,0.75479
1745601956.2951384,-5.483,5.689,5.152,43.879,30.075,126.689,0.49249,-0.04913,0.43033,0.75479
1745601956.2961378,-5.483,5.689,5.152,43.846,30.108,126.804,0.49249,-0.04913,0.43033,0.75479
1745601956.2971444,-5.392,5.732,5.267,43.802,30.13,126.909,0.49249,-0.04913,0.43033,0.75479
1745601956.3232763,-5.392,5.732,5.267,43.742,30.152,127.013,0.49249,-0.04913,0.43033,0.75479
1745601956.3252766,-5.444,5.636,5.44,43.687,30.168,127.117,0.49249,-0.04913,0.43033,0.75479
1745601956.3252766,-5.444,5.636,5.44,43.627,30.179,127.227,0.49249,-0.04913,0.43033,0.75479
1745601956.327277,-5.483,5.588,5.483,43.555,30.19,127.326,0.49249,-0.04913,0.43033,0.75479
1745601956.3536425,-5.483,5.588,5.483,43.478,30.19,127.419,0.49249,-0.04913,0.43033,0.75479
1745601956.5024848,-5.435,5.574,5.612,43.396,30.19,127.507,0.49249,-0.04913,0.43033,0.75479
1745601956.5207775,-5.435,5.574,5.612,43.303,30.185,127.595,0.49249,-0.04913,0.43033,0.75479
1745601956.5207775,-5.306,5.44,5.746,43.215,30.19,127.678,0.49249,-0.04913,0.43033,0.75479
1745601956.5217664,-5.306,5.44,5.746,43.121,30.201,127.76,0.49249,-0.04913,0.43033,0.75479
1745601956.522777,-5.483,5.507,5.837,43.022,30.223,127.842,0.49249,-0.04913,0.43033,0.75479
1745601956.5237627,-5.483,5.507,5.837,42.924,30.251,127.93,0.49249,-0.04913,0.43033,0.75479
1745601956.5237627,-5.535,5.397,5.981,42.83,30.284,128.024,0.49249,-0.04913,0.43033,0.75479
1745601956.5247653,-5.535,5.397,5.981,42.726,30.311,128.123,0.49249,-0.04913,0.43033,0.75479
1745601956.5247653,-5.507,5.325,6.086,42.621,30.344,128.21,0.49249,-0.04913,0.43033,0.75479
1745601956.5257668,-5.507,5.325,6.086,42.512,30.377,128.298,0.49249,-0.04913,0.43033,0.75479
1745601956.5257668,-5.646,5.253,6.201,42.402,30.416,128.386,0.49249,-0.04913,0.43033,0.75479
1745601956.526763,-5.646,5.253,6.201,42.286,30.454,128.463,0.49249,-0.04913,0.43033,0.75479
1745601956.526763,-5.775,5.387,6.273,42.177,30.493,128.546,0.49249,-0.04913,0.43033,0.75479
1745601956.527778,-5.775,5.387,6.273,42.061,30.536,128.628,0.49249,-0.04913,0.43033,0.75479
1745601956.527778,-5.679,5.229,6.407,41.957,30.58,128.71,0.49249,-0.04913,0.43033,0.75479
1745601956.532773,-5.679,5.229,6.407,41.863,30.63,128.798,0.49249,-0.04913,0.43033,0.75479
1745601956.532773,-5.784,5.368,6.34,41.77,30.674,128.886,0.49249,-0.04913,0.43033,0.75479
1745601956.532773,-5.784,5.368,6.34,41.677,30.718,128.969,0.49249,-0.04913,0.43033,0.75479
1745601956.5337665,-5.741,5.262,6.378,41.578,30.751,129.051,0.49249,-0.04913,0.43033,0.75479
1745601956.593415,-5.741,5.262,6.378,41.479,30.784,129.128,0.49249,-0.04913,0.43033,0.75479
1745601956.5944154,-5.756,5.306,6.46,41.375,30.806,129.194,0.49249,-0.04913,0.43033,0.75479
1745601956.596423,-5.756,5.306,6.46,41.281,30.822,129.254,0.49249,-0.04913,0.43033,0.75479
1745601956.597411,-5.641,5.296,6.359,41.193,30.839,129.32,0.49249,-0.04913,0.43033,0.75479
1745601956.5984225,-5.641,5.296,6.359,41.116,30.861,129.391,0.49249,-0.04913,0.43033,0.75479
1745601956.599419,-5.679,5.239,6.33,41.039,30.888,129.463,0.49249,-0.04913,0.43033,0.75479
1745601956.6004188,-5.679,5.239,6.33,40.974,30.91,129.534,0.49249,-0.04913,0.43033,0.75479
1745601956.6014185,-5.737,5.229,6.345,40.902,30.932,129.595,0.49249,-0.04913,0.43033,0.75479
1745601956.6533291,-5.737,5.229,6.345,40.825,30.943,129.65,0.49249,-0.04913,0.43033,0.75479
1745601956.6833274,-5.602,5.243,6.321,40.754,30.954,129.705,0.46838,-0.08325,0.41055,0.77783
1745601956.6843374,-5.602,5.243,6.321,40.682,30.976,129.754,0.46838,-0.08325,0.41055,0.77783
1745601956.6855586,-5.593,5.133,6.321,40.616,31.003,129.809,0.46838,-0.08325,0.41055,0.77783
1745601956.6865635,-5.593,5.133,6.321,40.556,31.042,129.875,0.46838,-0.08325,0.41055,0.77783
1745601956.6875517,-5.717,5.229,6.206,40.501,31.091,129.946,0.46838,-0.08325,0.41055,0.77783
1745601956.6895502,-5.717,5.229,6.206,40.446,31.141,130.018,0.46838,-0.08325,0.41055,0.77783
1745601956.690551,-5.689,5.181,6.163,40.397,31.19,130.1,0.46838,-0.08325,0.41055,0.77783
