address,timestamp,AccX,AccY,AccZ,Q0,Q1,Q2,Q3
C3:16:82:EF:1B:48,1748009015.4574075,0.115,-0.053,10.06,0.021,-0.00565,0.00272,-0.99973
C3:16:82:EF:1B:48,1748009015.4716978,0.115,-0.053,10.06,0.021,-0.00565,0.00272,-0.99973
C3:16:82:EF:1B:48,1748009015.4716978,0.11,-0.057,10.06,0.021,-0.00565,0.00272,-0.99973
C3:16:82:EF:1B:48,1748009015.4753437,0.11,-0.057,10.06,0.021,-0.00565,0.00272,-0.99973
C3:16:82:EF:1B:48,1748009015.4753437,0.115,-0.053,10.051,0.021,-0.00565,0.00272,-0.99973
C3:16:82:EF:1B:48,1748009015.476345,0.115,-0.053,10.051,0.021,-0.00565,0.00272,-0.99973
C3:16:82:EF:1B:48,1748009015.476345,0.115,-0.048,10.06,0.021,-0.00565,0.00272,-0.99973
C3:16:82:EF:1B:48,1748009015.4926023,0.115,-0.048,10.06,0.021,-0.00565,0.00272,-0.99973
F3:89:79:49:6C:B3,1748009015.4926023,-0.019,-0.038,9.96,0.52112,3e-05,0.00232,-0.85342
F3:89:79:49:6C:B3,1748009015.4926023,-0.019,-0.038,9.96,0.52112,3e-05,0.00232,-0.85342
F3:89:79:49:6C:B3,1748009015.4926023,-0.024,-0.038,9.969,0.52112,3e-05,0.00232,-0.85342
F3:89:79:49:6C:B3,1748009015.4926023,-0.024,-0.038,9.969,0.52112,3e-05,0.00232,-0.85342
F3:89:79:49:6C:B3,1748009015.5034983,-0.019,-0.038,9.974,0.52112,3e-05,0.00232,-0.85342
F3:89:79:49:6C:B3,1748009015.5034983,-0.019,-0.038,9.974,0.52112,3e-05,0.00232,-0.85342
F3:89:79:49:6C:B3,1748009015.5045042,-0.029,-0.034,9.96,0.52112,3e-05,0.00232,-0.85342
F3:89:79:49:6C:B3,1748009015.5045042,-0.029,-0.034,9.96,0.52112,6e-05,0.00232,-0.85342
C3:16:82:EF:1B:48,1748009015.516946,0.12,-0.053,10.06,0.021,-0.00565,0.00272,-0.99973
C3:16:82:EF:1B:48,1748009015.5331137,0.12,-0.053,10.06,0.021,-0.00565,0.00272,-0.99973
C3:16:82:EF:1B:48,1748009015.5341125,0.105,-0.053,10.056,0.021,-0.00565,0.00272,-0.99973
C3:16:82:EF:1B:48,1748009015.5351112,0.105,-0.053,10.056,0.021,-0.00565,0.00272,-0.99973
C3:16:82:EF:1B:48,1748009015.539692,0.11,-0.057,10.056,0.021,-0.00565,0.00272,-0.99973
C3:16:82:EF:1B:48,1748009015.539692,0.11,-0.057,10.056,0.021,-0.00565,0.00272,-0.99973
C3:16:82:EF:1B:48,1748009015.539692,0.11,-0.057,10.07,0.021,-0.00565,0.00272,-0.99973
C3:16:82:EF:1B:48,1748009015.539692,0.11,-0.057,10.07,0.021,-0.00565,0.00272,-0.99973
F3:89:79:49:6C:B3,1748009015.5557768,-0.024,-0.034,9.96,0.52112,6e-05,0.00232,-0.85342
F3:89:79:49:6C:B3,1748009015.5557768,-0.024,-0.034,9.96,0.52112,6e-05,0.00232,-0.85342
F3:89:79:49:6C:B3,1748009015.5557768,-0.024,-0.034,9.979,0.52112,6e-05,0.00232,-0.85342
F3:89:79:49:6C:B3,1748009015.5557768,-0.024,-0.034,9.979,0.52112,6e-05,0.00232,-0.85342
C3:16:82:EF:1B:48,1748009015.576756,0.11,-0.053,10.06,0.021,-0.00565,0.00272,-0.99973
C3:16:82:EF:1B:48,1748009015.576756,0.11,-0.053,10.06,0.021,-0.00565,0.00272,-0.99973
C3:16:82:EF:1B:48,1748009015.576756,0.105,-0.053,10.056,0.021,-0.00565,0.00272,-0.99973
C3:16:82:EF:1B:48,1748009015.576756,0.105,-0.053,10.056,0.021,-0.00565,0.00272,-0.99973
F3:89:79:49:6C:B3,1748009015.5878136,-0.029,-0.029,9.974,0.52112,6e-05,0.00232,-0.85342
F3:89:79:49:6C:B3,1748009015.5878136,-0.029,-0.029,9.974,0.52112,6e-05,0.00232,-0.85342
F3:89:79:49:6C:B3,1748009015.5878136,-0.019,-0.034,9.965,0.52112,6e-05,0.00232,-0.85342
F3:89:79:49:6C:B3,1748009015.5878136,-0.019,-0.034,9.965,0.52112,6e-05,0.00232,-0.85342
F3:89:79:49:6C:B3,1748009015.6214767,-0.024,-0.038,9.984,0.52112,6e-05,0.00232,-0.85342
F3:89:79:49:6C:B3,1748009015.6214767,-0.024,-0.038,9.984,0.52112,6e-05,0.00232,-0.85342
F3:89:79:49:6C:B3,1748009015.6214767,-0.024,-0.038,9.974,0.52112,6e-05,0.00232,-0.85342
F3:89:79:49:6C:B3,1748009015.6214767,-0.024,-0.038,9.974,0.52112,6e-05,0.00232,-0.85342
C3:16:82:EF:1B:48,1748009015.6383045,0.11,-0.062,10.06,0.021,-0.00565,0.00272,-0.99973
C3:16:82:EF:1B:48,1748009015.6383045,0.11,-0.062,10.06,0.021,-0.00565,0.00272,-0.99973
C3:16:82:EF:1B:48,1748009015.6383045,0.115,-0.057,10.06,0.021,-0.00565,0.00272,-0.99973
C3:16:82:EF:1B:48,1748009015.6383045,0.115,-0.057,10.06,0.021,-0.00565,0.00272,-0.99973
F3:89:79:49:6C:B3,1748009015.6544535,-0.024,-0.034,9.965,0.52112,6e-05,0.00232,-0.85342
F3:89:79:49:6C:B3,1748009015.6554546,-0.024,-0.034,9.965,0.52112,6e-05,0.00232,-0.85342
F3:89:79:49:6C:B3,1748009015.6564538,-0.019,-0.038,9.96,0.52112,6e-05,0.00232,-0.85342
F3:89:79:49:6C:B3,1748009015.6574516,-0.019,-0.038,9.96,0.52112,6e-05,0.00232,-0.85342
C3:16:82:EF:1B:48,1748009015.6684349,0.115,-0.053,10.056,0.021,-0.00565,0.00272,-0.99973
C3:16:82:EF:1B:48,1748009015.670955,0.115,-0.053,10.056,0.021,-0.00565,0.00272,-0.99973
C3:16:82:EF:1B:48,1748009015.67195,0.115,-0.053,10.06,0.021,-0.00565,0.00272,-0.99973
C3:16:82:EF:1B:48,1748009015.6729503,0.115,-0.053,10.06,0.021,-0.00565,0.00272,-0.99973
C3:16:82:EF:1B:48,1748009015.6995444,0.115,-0.062,10.06,0.021,-0.00565,0.00272,-0.99973
C3:16:82:EF:1B:48,1748009015.701191,0.115,-0.062,10.06,0.021,-0.00565,0.00272,-0.99973
C3:16:82:EF:1B:48,1748009015.701191,0.11,-0.057,10.056,0.021,-0.00565,0.00269,-0.99973
C3:16:82:EF:1B:48,1748009015.703367,0.11,-0.057,10.056,0.021,-0.00565,0.00269,-0.99973
F3:89:79:49:6C:B3,1748009015.7131662,-0.029,-0.038,9.969,0.52112,6e-05,0.00232,-0.85342
F3:89:79:49:6C:B3,1748009015.7151515,-0.029,-0.038,9.969,0.52112,6e-05,0.00232,-0.85342
F3:89:79:49:6C:B3,1748009015.7167094,-0.024,-0.038,9.965,0.52112,6e-05,0.00232,-0.85342
F3:89:79:49:6C:B3,1748009015.7177105,-0.024,-0.038,9.965,0.52112,6e-05,0.00232,-0.85342
F3:89:79:49:6C:B3,1748009015.7441459,-0.029,-0.034,9.974,0.52112,6e-05,0.00232,-0.85342
F3:89:79:49:6C:B3,1748009015.7451546,-0.029,-0.034,9.974,0.52112,6e-05,0.00232,-0.85342
F3:89:79:49:6C:B3,1748009015.7461636,-0.024,-0.029,9.979,0.52112,6e-05,0.00232,-0.85342
F3:89:79:49:6C:B3,1748009015.7471547,-0.024,-0.029,9.979,0.52112,6e-05,0.00232,-0.85342
C3:16:82:EF:1B:48,1748009015.7593572,0.11,-0.053,10.06,0.021,-0.00565,0.00269,-0.99973
C3:16:82:EF:1B:48,1748009015.7599995,0.11,-0.053,10.06,0.021,-0.00565,0.00269,-0.99973
C3:16:82:EF:1B:48,1748009015.761356,0.101,-0.048,10.065,0.021,-0.00565,0.00269,-0.99973
C3:16:82:EF:1B:48,1748009015.7885408,0.101,-0.048,10.065,0.021,-0.00565,0.00269,-0.99973
F3:89:79:49:6C:B3,1748009015.7943017,-0.034,-0.038,9.969,0.52112,6e-05,0.00232,-0.85342
F3:89:79:49:6C:B3,1748009015.795667,-0.034,-0.038,9.969,0.52112,6e-05,0.00232,-0.85342
F3:89:79:49:6C:B3,1748009015.796294,-0.029,-0.038,9.969,0.52112,6e-05,0.00232,-0.85342
F3:89:79:49:6C:B3,1748009015.7976506,-0.029,-0.038,9.969,0.52112,6e-05,0.00232,-0.85342
C3:16:82:EF:1B:48,1748009015.7976506,0.11,-0.053,10.06,0.021,-0.00565,0.00269,-0.99973
C3:16:82:EF:1B:48,1748009015.821647,0.11,-0.053,10.06,0.021,-0.00565,0.00269,-0.99973
C3:16:82:EF:1B:48,1748009015.829692,0.11,-0.062,10.06,0.021,-0.00565,0.00269,-0.99973
C3:16:82:EF:1B:48,1748009015.829692,0.11,-0.062,10.06,0.021,-0.00565,0.00269,-0.99973
C3:16:82:EF:1B:48,1748009015.8317156,0.12,-0.053,10.06,0.021,-0.00565,0.00269,-0.99973
C3:16:82:EF:1B:48,1748009015.8327138,0.12,-0.053,10.06,0.021,-0.00565,0.00269,-0.99973
C3:16:82:EF:1B:48,1748009015.8337152,0.12,-0.043,10.056,0.021,-0.00565,0.00269,-0.99973
C3:16:82:EF:1B:48,1748009015.855463,0.12,-0.043,10.056,0.021,-0.00565,0.00269,-0.99973
F3:89:79:49:6C:B3,1748009015.8633208,-0.014,-0.043,9.965,0.52112,6e-05,0.00232,-0.85342
F3:89:79:49:6C:B3,1748009015.8643074,-0.014,-0.043,9.965,0.52112,6e-05,0.00232,-0.85342
F3:89:79:49:6C:B3,1748009015.8643074,-0.01,-0.043,9.965,0.52112,6e-05,0.00232,-0.85342
F3:89:79:49:6C:B3,1748009015.8643074,-0.01,-0.043,9.965,0.52112,6e-05,0.00232,-0.85342
F3:89:79:49:6C:B3,1748009015.8643074,-0.01,-0.038,9.96,0.52112,6e-05,0.00232,-0.85342
F3:89:79:49:6C:B3,1748009015.8643074,-0.01,-0.038,9.96,0.52112,6e-05,0.00232,-0.85342
F3:89:79:49:6C:B3,1748009015.8643074,-0.034,-0.038,9.969,0.52112,6e-05,0.00232,-0.85342
F3:89:79:49:6C:B3,1748009015.8643074,-0.034,-0.038,9.969,0.52112,6e-05,0.00232,-0.85342
C3:16:82:EF:1B:48,1748009015.8795583,0.12,-0.043,10.056,0.021,-0.00565,0.00269,-0.99973
C3:16:82:EF:1B:48,1748009015.8805604,0.12,-0.043,10.056,0.021,-0.00565,0.00269,-0.99973
C3:16:82:EF:1B:48,1748009015.8805604,0.11,-0.062,10.06,0.021,-0.00565,0.00269,-0.99973
C3:16:82:EF:1B:48,1748009015.9025567,0.11,-0.062,10.06,0.021,-0.00565,0.00269,-0.99973
F3:89:79:49:6C:B3,1748009015.9025567,-0.043,-0.038,9.974,0.52112,6e-05,0.00232,-0.85342
F3:89:79:49:6C:B3,1748009015.9035642,-0.038,-0.029,9.969,0.52112,6e-05,0.00232,-0.85342
F3:89:79:49:6C:B3,1748009015.904562,-0.038,-0.029,9.969,0.52112,6e-05,0.00232,-0.85342
F3:89:79:49:6C:B3,1748009015.904562,-0.024,-0.034,9.969,0.52112,6e-05,0.00232,-0.85342
C3:16:82:EF:1B:48,1748009015.907563,0.096,-0.067,10.07,0.021,-0.00565,0.00269,-0.99973
C3:16:82:EF:1B:48,1748009015.907563,0.096,-0.067,10.07,0.021,-0.00565,0.00269,-0.99973
C3:16:82:EF:1B:48,1748009015.907563,0.105,-0.057,10.065,0.021,-0.00565,0.00269,-0.99973
C3:16:82:EF:1B:48,1748009015.907563,0.105,-0.057,10.065,0.021,-0.00565,0.00269,-0.99973
C3:16:82:EF:1B:48,1748009015.938137,0.11,-0.053,10.06,0.021,-0.00565,0.00269,-0.99973
C3:16:82:EF:1B:48,1748009015.9391332,0.11,-0.053,10.06,0.021,-0.00565,0.00269,-0.99973
C3:16:82:EF:1B:48,1748009015.940136,0.12,-0.057,10.051,0.021,-0.00565,0.00269,-0.99973
C3:16:82:EF:1B:48,1748009015.9411345,0.12,-0.057,10.051,0.021,-0.00565,0.00269,-0.99973
F3:89:79:49:6C:B3,1748009015.9541888,-0.024,-0.034,9.969,0.52112,6e-05,0.00232,-0.85342
F3:89:79:49:6C:B3,1748009015.95561,-0.024,-0.038,9.969,0.52112,6e-05,0.00232,-0.85342
F3:89:79:49:6C:B3,1748009015.9566102,-0.024,-0.038,9.969,0.52112,6e-05,0.00232,-0.85342
F3:89:79:49:6C:B3,1748009015.9576094,-0.014,-0.048,9.965,0.52112,6e-05,0.00232,-0.85342
F3:89:79:49:6C:B3,1748009015.9844115,-0.014,-0.048,9.965,0.52112,6e-05,0.00232,-0.85342
F3:89:79:49:6C:B3,1748009015.9850526,-0.019,-0.038,9.96,0.52112,6e-05,0.00232,-0.85342
F3:89:79:49:6C:B3,1748009015.9860525,-0.019,-0.038,9.96,0.52112,6e-05,0.00232,-0.85342
F3:89:79:49:6C:B3,1748009015.9880564,-0.019,-0.034,9.969,0.52112,6e-05,0.00232,-0.85342
C3:16:82:EF:1B:48,1748009015.9981334,0.12,-0.057,10.056,0.021,-0.00565,0.00269,-0.99973
C3:16:82:EF:1B:48,1748009016.0001526,0.12,-0.057,10.056,0.021,-0.00565,0.00269,-0.99973
C3:16:82:EF:1B:48,1748009016.0021515,0.12,-0.048,10.051,0.021,-0.00565,0.00269,-0.99973
C3:16:82:EF:1B:48,1748009016.029513,0.12,-0.048,10.051,0.021,-0.00565,0.00269,-0.99973
F3:89:79:49:6C:B3,1748009016.0317225,-0.019,-0.034,9.969,0.52112,6e-05,0.00232,-0.85342
F3:89:79:49:6C:B3,1748009016.0325112,-0.019,-0.038,9.974,0.52112,6e-05,0.00232,-0.85342
F3:89:79:49:6C:B3,1748009016.0335135,-0.019,-0.038,9.974,0.52112,6e-05,0.00232,-0.85342
F3:89:79:49:6C:B3,1748009016.0348716,-0.029,-0.034,9.965,0.52112,6e-05,0.00232,-0.85342
C3:16:82:EF:1B:48,1748009016.0355098,0.115,-0.053,10.06,0.021,-0.00565,0.00269,-0.99973
C3:16:82:EF:1B:48,1748009016.0594237,0.115,-0.053,10.06,0.021,-0.00565,0.00269,-0.99973
C3:16:82:EF:1B:48,1748009016.0604234,0.105,-0.048,10.06,0.021,-0.00565,0.00269,-0.99973
C3:16:82:EF:1B:48,1748009016.075032,0.105,-0.048,10.06,0.021,-0.00565,0.00269,-0.99973
C3:16:82:EF:1B:48,1748009016.075032,0.105,-0.057,10.06,0.021,-0.00565,0.00269,-0.99973
C3:16:82:EF:1B:48,1748009016.0893755,0.105,-0.057,10.06,0.021,-0.00565,0.00269,-0.99973
C3:16:82:EF:1B:48,1748009016.0952885,0.105,-0.057,10.06,0.021,-0.00565,0.00269,-0.99973
C3:16:82:EF:1B:48,1748009016.0963123,0.105,-0.057,10.06,0.021,-0.00565,0.00269,-0.99973
F3:89:79:49:6C:B3,1748009016.0973046,-0.029,-0.034,9.965,0.52112,6e-05,0.00232,-0.85342
F3:89:79:49:6C:B3,1748009016.098304,-0.029,-0.038,9.969,0.52112,6e-05,0.00232,-0.85342
F3:89:79:49:6C:B3,1748009016.0993059,-0.029,-0.038,9.969,0.52112,6e-05,0.00232,-0.85342
F3:89:79:49:6C:B3,1748009016.0993059,-0.029,-0.043,9.965,0.52112,6e-05,0.00232,-0.85342
F3:89:79:49:6C:B3,1748009016.1034038,-0.029,-0.043,9.965,0.52112,6e-05,0.00232,-0.85342
F3:89:79:49:6C:B3,1748009016.1044242,-0.024,-0.038,9.969,0.52112,6e-05,0.00232,-0.85342
F3:89:79:49:6C:B3,1748009016.1054225,-0.024,-0.038,9.969,0.52112,6e-05,0.00232,-0.85342
F3:89:79:49:6C:B3,1748009016.106339,-0.024,-0.038,9.969,0.52112,6e-05,0.00232,-0.85342
C3:16:82:EF:1B:48,1748009016.1117039,0.11,-0.053,10.065,0.021,-0.00565,0.00269,-0.99973
C3:16:82:EF:1B:48,1748009016.1200616,0.11,-0.053,10.065,0.021,-0.00565,0.00269,-0.99973
C3:16:82:EF:1B:48,1748009016.121083,0.11,-0.057,10.065,0.021,-0.00565,0.00269,-0.99973
C3:16:82:EF:1B:48,1748009016.121083,0.11,-0.057,10.065,0.021,-0.00565,0.00269,-0.99973
F3:89:79:49:6C:B3,1748009016.134033,-0.024,-0.038,9.969,0.52112,6e-05,0.00232,-0.85342
F3:89:79:49:6C:B3,1748009016.134033,-0.024,-0.034,9.974,0.52112,6e-05,0.00232,-0.85342
F3:89:79:49:6C:B3,1748009016.1350346,-0.024,-0.034,9.974,0.52112,6e-05,0.00232,-0.85342
F3:89:79:49:6C:B3,1748009016.1350346,-0.029,-0.043,9.969,0.52112,6e-05,0.00232,-0.85342
C3:16:82:EF:1B:48,1748009016.1489596,0.11,-0.053,10.056,0.021,-0.00565,0.00269,-0.99973
C3:16:82:EF:1B:48,1748009016.1503153,0.11,-0.053,10.056,0.021,-0.00565,0.00269,-0.99973
C3:16:82:EF:1B:48,1748009016.1509564,0.11,-0.057,10.06,0.021,-0.00565,0.00269,-0.99973
C3:16:82:EF:1B:48,1748009016.1523123,0.11,-0.057,10.06,0.021,-0.00565,0.00269,-0.99973
C3:16:82:EF:1B:48,1748009016.1794536,0.12,-0.062,10.06,0.021,-0.00565,0.00269,-0.99973
C3:16:82:EF:1B:48,1748009016.1808484,0.12,-0.053,10.06,0.021,-0.00565,0.00269,-0.99973
C3:16:82:EF:1B:48,1748009016.1822171,0.12,-0.053,10.06,0.021,-0.00565,0.00269,-0.99973
C3:16:82:EF:1B:48,1748009016.182849,0.115,-0.043,10.06,0.021,-0.00565,0.00269,-0.99973
F3:89:79:49:6C:B3,1748009016.2140872,-0.029,-0.043,9.969,0.52112,6e-05,0.00232,-0.85342
F3:89:79:49:6C:B3,1748009016.2150912,-0.019,-0.038,9.974,0.52112,6e-05,0.00232,-0.85342
F3:89:79:49:6C:B3,1748009016.216091,-0.019,-0.038,9.974,0.52112,6e-05,0.00232,-0.85342
F3:89:79:49:6C:B3,1748009016.2170906,-0.019,-0.034,9.965,0.52112,6e-05,0.00232,-0.85342
F3:89:79:49:6C:B3,1748009016.2230878,-0.019,-0.034,9.965,0.52112,6e-05,0.00232,-0.85342
F3:89:79:49:6C:B3,1748009016.2240963,-0.019,-0.034,9.969,0.52112,6e-05,0.00232,-0.85342
F3:89:79:49:6C:B3,1748009016.225085,-0.019,-0.034,9.969,0.52112,6e-05,0.00232,-0.85342
F3:89:79:49:6C:B3,1748009016.226091,-0.038,-0.043,9.969,0.52112,6e-05,0.00232,-0.85342
C3:16:82:EF:1B:48,1748009016.2398772,0.115,-0.043,10.06,0.021,-0.00565,0.00269,-0.99973
C3:16:82:EF:1B:48,1748009016.2413642,0.11,-0.053,10.06,0.021,-0.00565,0.00269,-0.99973
C3:16:82:EF:1B:48,1748009016.2554789,0.11,-0.053,10.06,0.021,-0.00565,0.00269,-0.99973
C3:16:82:EF:1B:48,1748009016.2700963,0.11,-0.062,10.06,0.021,-0.00565,0.00269,-0.99973
C3:16:82:EF:1B:48,1748009016.272133,0.11,-0.062,10.06,0.021,-0.00565,0.00269,-0.99973
C3:16:82:EF:1B:48,1748009016.272133,0.11,-0.067,10.06,0.021,-0.00565,0.00269,-0.99973
C3:16:82:EF:1B:48,1748009016.2731178,0.11,-0.067,10.06,0.021,-0.00565,0.00269,-0.99973
C3:16:82:EF:1B:48,1748009016.2740917,0.11,-0.053,10.051,0.021,-0.00565,0.00269,-0.99973
F3:89:79:49:6C:B3,1748009016.2753794,-0.038,-0.043,9.969,0.52112,6e-05,0.00232,-0.85342
F3:89:79:49:6C:B3,1748009016.2753794,-0.034,-0.043,9.969,0.52112,6e-05,0.00232,-0.85342
F3:89:79:49:6C:B3,1748009016.2753794,-0.034,-0.043,9.969,0.52112,6e-05,0.00232,-0.85342
F3:89:79:49:6C:B3,1748009016.2753794,-0.024,-0.034,9.974,0.52112,6e-05,0.00232,-0.85342
C3:16:82:EF:1B:48,1748009016.288379,0.11,-0.053,10.051,0.021,-0.00565,0.00269,-0.99973
C3:16:82:EF:1B:48,1748009016.288379,0.115,-0.048,10.06,0.021,-0.00565,0.00269,-0.99973
C3:16:82:EF:1B:48,1748009016.355108,0.115,-0.048,10.06,0.021,-0.00565,0.00269,-0.99973
C3:16:82:EF:1B:48,1748009016.3691418,0.12,-0.053,10.056,0.021,-0.00565,0.00269,-0.99973
F3:89:79:49:6C:B3,1748009016.3883739,-0.024,-0.034,9.974,0.52112,6e-05,0.00232,-0.85342
F3:89:79:49:6C:B3,1748009016.3883739,-0.01,-0.034,9.969,0.52112,6e-05,0.00232,-0.85342
F3:89:79:49:6C:B3,1748009016.395528,-0.01,-0.034,9.969,0.52112,6e-05,0.00232,-0.85342
F3:89:79:49:6C:B3,1748009016.3965557,-0.024,-0.038,9.969,0.52112,6e-05,0.00232,-0.85342
F3:89:79:49:6C:B3,1748009016.3965557,-0.024,-0.038,9.969,0.52112,6e-05,0.00232,-0.85342
F3:89:79:49:6C:B3,1748009016.398546,-0.024,-0.048,9.965,0.52112,6e-05,0.00232,-0.85342
F3:89:79:49:6C:B3,1748009016.3999043,-0.024,-0.048,9.965,0.52112,6e-05,0.00232,-0.85342
F3:89:79:49:6C:B3,1748009016.3999043,-0.024,-0.038,9.969,0.52112,6e-05,0.00232,-0.85342
C3:16:82:EF:1B:48,1748009016.3999043,0.12,-0.053,10.056,0.021,-0.00565,0.00269,-0.99973
C3:16:82:EF:1B:48,1748009016.3999043,0.115,-0.053,10.056,0.021,-0.00565,0.00269,-0.99973
C3:16:82:EF:1B:48,1748009016.3999043,0.115,-0.053,10.056,0.021,-0.00565,0.00269,-0.99973
C3:16:82:EF:1B:48,1748009016.403723,0.115,-0.053,10.06,0.021,-0.00565,0.00269,-0.99973
C3:16:82:EF:1B:48,1748009016.4047437,0.115,-0.053,10.06,0.021,-0.00565,0.00269,-0.99973
C3:16:82:EF:1B:48,1748009016.4057443,0.115,-0.057,10.056,0.021,-0.00565,0.00269,-0.99973
C3:16:82:EF:1B:48,1748009016.406476,0.115,-0.057,10.056,0.021,-0.00565,0.00269,-0.99973
C3:16:82:EF:1B:48,1748009016.407643,0.11,-0.053,10.051,0.021,-0.00565,0.00269,-0.99973
F3:89:79:49:6C:B3,1748009016.407643,-0.024,-0.038,9.969,0.52112,6e-05,0.00232,-0.85342
F3:89:79:49:6C:B3,1748009016.408638,-0.024,-0.034,9.969,0.52112,6e-05,0.00232,-0.85342
F3:89:79:49:6C:B3,1748009016.409642,-0.024,-0.034,9.969,0.52112,6e-05,0.00232,-0.85342
F3:89:79:49:6C:B3,1748009016.409642,-0.029,-0.043,9.969,0.52112,6e-05,0.00232,-0.85342
C3:16:82:EF:1B:48,1748009016.4188523,0.11,-0.053,10.051,0.021,-0.00565,0.00269,-0.99973
C3:16:82:EF:1B:48,1748009016.4199803,0.105,-0.062,10.06,0.021,-0.00565,0.00269,-0.99973
C3:16:82:EF:1B:48,1748009016.4210641,0.105,-0.062,10.06,0.021,-0.00565,0.00269,-0.99973
C3:16:82:EF:1B:48,1748009016.4230661,0.096,-0.057,10.065,0.021,-0.00565,0.00269,-0.99973
F3:89:79:49:6C:B3,1748009016.4345653,-0.029,-0.043,9.969,0.52112,6e-05,0.00232,-0.85342
F3:89:79:49:6C:B3,1748009016.435562,-0.019,-0.034,9.974,0.52112,6e-05,0.00232,-0.85342
F3:89:79:49:6C:B3,1748009016.4370248,-0.019,-0.034,9.974,0.52112,6e-05,0.00232,-0.85342
F3:89:79:49:6C:B3,1748009016.4380507,-0.029,-0.024,9.969,0.52112,6e-05,0.00232,-0.85342
F3:89:79:49:6C:B3,1748009016.4642522,-0.029,-0.024,9.969,0.52112,6e-05,0.00232,-0.85342
F3:89:79:49:6C:B3,1748009016.4653707,-0.034,-0.034,9.974,0.52112,6e-05,0.00232,-0.85342
F3:89:79:49:6C:B3,1748009016.4672484,-0.034,-0.034,9.974,0.52112,6e-05,0.00232,-0.85342
F3:89:79:49:6C:B3,1748009016.468249,-0.029,-0.043,9.969,0.52112,6e-05,0.00232,-0.85342
C3:16:82:EF:1B:48,1748009016.4792428,0.096,-0.057,10.065,0.021,-0.00565,0.00269,-0.99973
C3:16:82:EF:1B:48,1748009016.4802449,0.105,-0.062,10.06,0.021,-0.00565,0.00269,-0.99973
C3:16:82:EF:1B:48,1748009016.48224,0.105,-0.062,10.06,0.021,-0.00565,0.00269,-0.99973
C3:16:82:EF:1B:48,1748009016.4832437,0.12,-0.057,10.06,0.021,-0.00565,0.00269,-0.99973
C3:16:82:EF:1B:48,1748009016.5086658,0.12,-0.057,10.06,0.021,-0.00565,0.00269,-0.99973
C3:16:82:EF:1B:48,1748009016.5086658,0.12,-0.053,10.056,0.021,-0.00565,0.00269,-0.99973
C3:16:82:EF:1B:48,1748009016.5096693,0.12,-0.053,10.056,0.021,-0.00565,0.00269,-0.99973
C3:16:82:EF:1B:48,1748009016.5096693,0.115,-0.048,10.056,0.021,-0.00565,0.00269,-0.99973
F3:89:79:49:6C:B3,1748009016.5266652,-0.029,-0.043,9.969,0.52112,6e-05,0.00232,-0.85342
F3:89:79:49:6C:B3,1748009016.5276659,-0.014,-0.048,9.969,0.52112,6e-05,0.00232,-0.85342
F3:89:79:49:6C:B3,1748009016.5276659,-0.014,-0.048,9.969,0.52112,6e-05,0.00232,-0.85342
F3:89:79:49:6C:B3,1748009016.5286708,-0.01,-0.038,9.969,0.52112,6e-05,0.00232,-0.85342
C3:16:82:EF:1B:48,1748009016.5381222,0.115,-0.048,10.056,0.021,-0.00565,0.00269,-0.99973
C3:16:82:EF:1B:48,1748009016.539119,0.11,-0.057,10.051,0.021,-0.00565,0.00269,-0.99973
C3:16:82:EF:1B:48,1748009016.552668,0.11,-0.057,10.051,0.021,-0.00565,0.00269,-0.99973
C3:16:82:EF:1B:48,1748009016.5536811,0.105,-0.062,10.06,0.021,-0.00565,0.00269,-0.99973
F3:89:79:49:6C:B3,1748009016.5536811,-0.01,-0.038,9.969,0.52112,6e-05,0.00232,-0.85342
F3:89:79:49:6C:B3,1748009016.5546772,-0.014,-0.038,9.969,0.52112,6e-05,0.00232,-0.85342
F3:89:79:49:6C:B3,1748009016.5546772,-0.014,-0.038,9.969,0.52112,6e-05,0.00232,-0.85342
F3:89:79:49:6C:B3,1748009016.5556793,-0.029,-0.043,9.965,0.52112,6e-05,0.00232,-0.85342
F3:89:79:49:6C:B3,1748009016.5844326,-0.029,-0.043,9.965,0.52112,6e-05,0.00232,-0.85342
F3:89:79:49:6C:B3,1748009016.5864305,-0.034,-0.034,9.974,0.52112,6e-05,0.00232,-0.85342
F3:89:79:49:6C:B3,1748009016.5874305,-0.034,-0.034,9.974,0.52112,6e-05,0.00232,-0.85342
F3:89:79:49:6C:B3,1748009016.5884316,-0.024,-0.029,9.965,0.52112,6e-05,0.00232,-0.85342
C3:16:82:EF:1B:48,1748009016.5993173,0.105,-0.062,10.06,0.021,-0.00565,0.00269,-0.99973
C3:16:82:EF:1B:48,1748009016.600636,0.105,-0.057,10.065,0.021,-0.00565,0.00269,-0.99973
C3:16:82:EF:1B:48,1748009016.6023154,0.105,-0.057,10.065,0.021,-0.00565,0.00269,-0.99973
C3:16:82:EF:1B:48,1748009016.6033187,0.105,-0.053,10.065,0.021,-0.00565,0.00269,-0.99973
C3:16:82:EF:1B:48,1748009016.6291597,0.105,-0.053,10.065,0.021,-0.00565,0.00269,-0.99973
C3:16:82:EF:1B:48,1748009016.6301599,0.11,-0.057,10.056,0.021,-0.00565,0.00269,-0.99973
C3:16:82:EF:1B:48,1748009016.6311545,0.11,-0.057,10.056,0.021,-0.00565,0.00269,-0.99973
C3:16:82:EF:1B:48,1748009016.6321523,0.12,-0.062,10.06,0.021,-0.00565,0.00269,-0.99973
F3:89:79:49:6C:B3,1748009016.643954,-0.024,-0.029,9.965,0.52112,6e-05,0.00232,-0.85342
F3:89:79:49:6C:B3,1748009016.6448257,-0.019,-0.034,9.969,0.52112,6e-05,0.00232,-0.85342
F3:89:79:49:6C:B3,1748009016.6460059,-0.019,-0.034,9.969,0.52112,6e-05,0.00232,-0.85342
F3:89:79:49:6C:B3,1748009016.648002,-0.029,-0.043,9.969,0.52112,6e-05,0.00232,-0.85342
C3:16:82:EF:1B:48,1748009016.659139,0.12,-0.062,10.06,0.021,-0.00565,0.00269,-0.99973
C3:16:82:EF:1B:48,1748009016.6601415,0.12,-0.053,10.056,0.021,-0.00565,0.00269,-0.99973
C3:16:82:EF:1B:48,1748009016.662032,0.12,-0.053,10.056,0.021,-0.00565,0.00269,-0.99973
C3:16:82:EF:1B:48,1748009016.6632545,0.12,-0.053,10.056,0.021,-0.00565,0.00269,-0.99973
F3:89:79:49:6C:B3,1748009016.6729958,-0.029,-0.043,9.969,0.52112,6e-05,0.00232,-0.85342
F3:89:79:49:6C:B3,1748009016.675,-0.024,-0.043,9.965,0.52112,6e-05,0.00232,-0.85342
F3:89:79:49:6C:B3,1748009016.6763508,-0.024,-0.043,9.965,0.52112,6e-05,0.00232,-0.85342
F3:89:79:49:6C:B3,1748009016.6777458,-0.014,-0.043,9.969,0.52112,6e-05,0.00232,-0.85342
F3:89:79:49:6C:B3,1748009016.7045279,-0.014,-0.043,9.969,0.52112,6e-05,0.00232,-0.85342
F3:89:79:49:6C:B3,1748009016.7056243,-0.014,-0.034,9.969,0.52112,6e-05,0.00232,-0.85342
F3:89:79:49:6C:B3,1748009016.7069259,-0.014,-0.034,9.969,0.52112,6e-05,0.00232,-0.85342
F3:89:79:49:6C:B3,1748009016.7086403,-0.024,-0.029,9.965,0.52112,6e-05,0.00232,-0.85342
C3:16:82:EF:1B:48,1748009016.718852,0.12,-0.053,10.056,0.021,-0.00565,0.00269,-0.99973
C3:16:82:EF:1B:48,1748009016.7208507,0.11,-0.048,10.056,0.021,-0.00565,0.00269,-0.99973
C3:16:82:EF:1B:48,1748009016.7568555,0.11,-0.048,10.056,0.021,-0.00565,0.00269,-0.99973
C3:16:82:EF:1B:48,1748009016.7578437,0.105,-0.053,10.056,0.021,-0.00565,0.00269,-0.99973
C3:16:82:EF:1B:48,1748009016.7819955,0.105,-0.053,10.056,0.021,-0.00565,0.00269,-0.99973
C3:16:82:EF:1B:48,1748009016.7819955,0.105,-0.057,10.06,0.021,-0.00565,0.00269,-0.99973
C3:16:82:EF:1B:48,1748009016.7829967,0.105,-0.057,10.06,0.021,-0.00565,0.00269,-0.99973
C3:16:82:EF:1B:48,1748009016.7839952,0.105,-0.062,10.06,0.021,-0.00565,0.00269,-0.99973
F3:89:79:49:6C:B3,1748009016.7839952,-0.024,-0.029,9.965,0.52112,6e-05,0.00232,-0.85342
F3:89:79:49:6C:B3,1748009016.784995,-0.029,-0.034,9.974,0.52112,6e-05,0.00232,-0.85342
F3:89:79:49:6C:B3,1748009016.784995,-0.029,-0.034,9.974,0.52112,6e-05,0.00232,-0.85342
F3:89:79:49:6C:B3,1748009016.785995,-0.034,-0.029,9.979,0.52112,6e-05,0.00232,-0.85342
F3:89:79:49:6C:B3,1748009016.7884889,-0.034,-0.029,9.979,0.52112,6e-05,0.00232,-0.85342
F3:89:79:49:6C:B3,1748009016.7884889,-0.024,-0.034,9.965,0.52112,6e-05,0.00232,-0.85342
F3:89:79:49:6C:B3,1748009016.7884889,-0.024,-0.034,9.965,0.52112,6e-05,0.00232,-0.85342
F3:89:79:49:6C:B3,1748009016.7884889,-0.019,-0.038,9.96,0.52112,6e-05,0.00232,-0.85342
C3:16:82:EF:1B:48,1748009016.8080506,0.105,-0.062,10.06,0.021,-0.00565,0.00269,-0.99973
C3:16:82:EF:1B:48,1748009016.8090465,0.11,-0.043,10.056,0.021,-0.00565,0.00269,-0.99973
C3:16:82:EF:1B:48,1748009016.8389513,0.11,-0.043,10.056,0.021,-0.00565,0.00269,-0.99973
C3:16:82:EF:1B:48,1748009016.840899,0.115,-0.048,10.056,0.021,-0.00565,0.00269,-0.99973
F3:89:79:49:6C:B3,1748009016.8415651,-0.019,-0.038,9.96,0.52112,6e-05,0.00232,-0.85342
F3:89:79:49:6C:B3,1748009016.843086,-0.029,-0.048,9.974,0.52112,6e-05,0.00232,-0.85342
F3:89:79:49:6C:B3,1748009016.8441029,-0.029,-0.048,9.974,0.52112,6e-05,0.00232,-0.85342
F3:89:79:49:6C:B3,1748009016.8441029,-0.034,-0.043,9.969,0.52112,6e-05,0.00232,-0.85342
C3:16:82:EF:1B:48,1748009016.8441029,0.115,-0.048,10.056,0.021,-0.00565,0.00269,-0.99973
C3:16:82:EF:1B:48,1748009016.8441029,0.124,-0.067,10.06,0.021,-0.00565,0.00269,-0.99973
C3:16:82:EF:1B:48,1748009016.875449,0.124,-0.067,10.06,0.021,-0.00565,0.00269,-0.99973
C3:16:82:EF:1B:48,1748009016.876454,0.12,-0.057,10.056,0.021,-0.00565,0.00269,-0.99973
C3:16:82:EF:1B:48,1748009016.8774576,0.12,-0.057,10.056,0.021,-0.00565,0.00269,-0.99973
C3:16:82:EF:1B:48,1748009016.8788128,0.11,-0.038,10.051,0.021,-0.00565,0.00269,-0.99973
C3:16:82:EF:1B:48,1748009016.890023,0.11,-0.038,10.051,0.021,-0.00565,0.00269,-0.99973
C3:16:82:EF:1B:48,1748009016.890023,0.105,-0.043,10.06,0.021,-0.00565,0.00269,-0.99973
F3:89:79:49:6C:B3,1748009016.900523,-0.034,-0.043,9.969,0.52112,6e-05,0.00232,-0.85342
F3:89:79:49:6C:B3,1748009016.9015555,-0.014,-0.034,9.965,0.52112,6e-05,0.00232,-0.85342
F3:89:79:49:6C:B3,1748009016.9015555,-0.014,-0.034,9.965,0.52112,6e-05,0.00232,-0.85342
F3:89:79:49:6C:B3,1748009016.9015555,-0.01,-0.029,9.969,0.52112,6e-05,0.00232,-0.85342
F3:89:79:49:6C:B3,1748009016.9062388,-0.01,-0.029,9.969,0.52112,6e-05,0.00232,-0.85342
F3:89:79:49:6C:B3,1748009016.9062388,-0.019,-0.029,9.979,0.52112,6e-05,0.00232,-0.85342
F3:89:79:49:6C:B3,1748009016.9062388,-0.019,-0.029,9.979,0.52112,6e-05,0.00232,-0.85342
F3:89:79:49:6C:B3,1748009016.9062388,-0.029,-0.034,9.96,0.52112,6e-05,0.00232,-0.85342
C3:16:82:EF:1B:48,1748009016.9295516,0.105,-0.043,10.06,0.021,-0.00565,0.00269,-0.99973
C3:16:82:EF:1B:48,1748009016.9305542,0.105,-0.053,10.065,0.021,-0.00565,0.00269,-0.99973
C3:16:82:EF:1B:48,1748009016.9627557,0.105,-0.053,10.065,0.021,-0.00565,0.00269,-0.99973
C3:16:82:EF:1B:48,1748009016.9647543,0.105,-0.062,10.056,0.021,-0.00565,0.00269,-0.99973
F3:89:79:49:6C:B3,1748009016.9657538,-0.029,-0.034,9.96,0.52112,6e-05,0.00232,-0.85342
F3:89:79:49:6C:B3,1748009016.966756,-0.034,-0.038,9.965,0.52112,6e-05,0.00232,-0.85342
F3:89:79:49:6C:B3,1748009016.9677584,-0.034,-0.038,9.965,0.52112,6e-05,0.00232,-0.85342
F3:89:79:49:6C:B3,1748009016.9697578,-0.024,-0.038,9.974,0.52112,6e-05,0.00232,-0.85342
C3:16:82:EF:1B:48,1748009016.9713738,0.105,-0.062,10.056,0.021,-0.00565,0.00269,-0.99973
C3:16:82:EF:1B:48,1748009016.9723675,0.11,-0.067,10.06,0.021,-0.00565,0.00269,-0.99973
C3:16:82:EF:1B:48,1748009016.9733708,0.11,-0.067,10.06,0.021,-0.00565,0.00269,-0.99973
C3:16:82:EF:1B:48,1748009016.9743707,0.115,-0.057,10.06,0.021,-0.00565,0.00269,-0.99973
C3:16:82:EF:1B:48,1748009016.988823,0.115,-0.057,10.06,0.021,-0.00565,0.00269,-0.99973
C3:16:82:EF:1B:48,1748009016.989827,0.115,-0.053,10.056,0.021,-0.00565,0.00269,-0.99973
C3:16:82:EF:1B:48,1748009016.9918218,0.115,-0.053,10.056,0.021,-0.00565,0.00269,-0.99973
C3:16:82:EF:1B:48,1748009016.9928231,0.115,-0.053,10.056,0.021,-0.00565,0.00269,-0.99973
F3:89:79:49:6C:B3,1748009017.004418,-0.024,-0.038,9.974,0.52112,6e-05,0.00232,-0.85342
F3:89:79:49:6C:B3,1748009017.0061376,-0.024,-0.038,9.965,0.52112,6e-05,0.00232,-0.85342
F3:89:79:49:6C:B3,1748009017.0067987,-0.024,-0.038,9.965,0.52112,6e-05,0.00232,-0.85342
F3:89:79:49:6C:B3,1748009017.008984,-0.019,-0.043,9.96,0.52112,6e-05,0.00232,-0.85342
F3:89:79:49:6C:B3,1748009017.0349035,-0.019,-0.043,9.96,0.52112,6e-05,0.00232,-0.85342
F3:89:79:49:6C:B3,1748009017.0359035,-0.019,-0.034,9.974,0.52112,6e-05,0.00232,-0.85342
F3:89:79:49:6C:B3,1748009017.037904,-0.019,-0.034,9.974,0.52112,6e-05,0.00232,-0.85342
F3:89:79:49:6C:B3,1748009017.039114,-0.024,-0.029,9.965,0.52112,6e-05,0.00232,-0.85342
C3:16:82:EF:1B:48,1748009017.049181,0.115,-0.053,10.056,0.021,-0.00565,0.00269,-0.99973
C3:16:82:EF:1B:48,1748009017.0501835,0.105,-0.048,10.06,0.021,-0.00565,0.00269,-0.99973
C3:16:82:EF:1B:48,1748009017.082667,0.105,-0.048,10.06,0.021,-0.00565,0.00269,-0.99973
C3:16:82:EF:1B:48,1748009017.0846615,0.11,-0.048,10.056,0.021,-0.00565,0.00269,-0.99973
F3:89:79:49:6C:B3,1748009017.085653,-0.024,-0.029,9.965,0.52112,6e-05,0.00232,-0.85342
F3:89:79:49:6C:B3,1748009017.086664,-0.014,-0.034,9.965,0.52112,6e-05,0.00232,-0.85342
F3:89:79:49:6C:B3,1748009017.0886648,-0.014,-0.034,9.965,0.52112,6e-05,0.00232,-0.85342
F3:89:79:49:6C:B3,1748009017.0896673,-0.019,-0.043,9.965,0.52112,6e-05,0.00232,-0.85342
C3:16:82:EF:1B:48,1748009017.0906591,0.11,-0.048,10.056,0.021,-0.00565,0.00269,-0.99973
C3:16:82:EF:1B:48,1748009017.0916653,0.115,-0.053,10.056,0.021,-0.00565,0.00269,-0.99973
C3:16:82:EF:1B:48,1748009017.1195588,0.115,-0.053,10.056,0.021,-0.00565,0.00269,-0.99973
C3:16:82:EF:1B:48,1748009017.1205456,0.11,-0.062,10.065,0.021,-0.00565,0.00269,-0.99973
C3:16:82:EF:1B:48,1748009017.1225476,0.11,-0.062,10.065,0.021,-0.00565,0.00269,-0.99973
C3:16:82:EF:1B:48,1748009017.1235454,0.12,-0.067,10.06,0.021,-0.00565,0.00269,-0.99973
C3:16:82:EF:1B:48,1748009017.1235454,0.12,-0.067,10.06,0.021,-0.00565,0.00269,-0.99973
C3:16:82:EF:1B:48,1748009017.1235454,0.11,-0.053,10.056,0.021,-0.00565,0.00269,-0.99973
F3:89:79:49:6C:B3,1748009017.1235454,-0.019,-0.043,9.965,0.52112,6e-05,0.00232,-0.85342
F3:89:79:49:6C:B3,1748009017.1235454,-0.029,-0.043,9.965,0.52112,6e-05,0.00232,-0.85342
F3:89:79:49:6C:B3,1748009017.1235454,-0.029,-0.043,9.965,0.52112,6e-05,0.00232,-0.85342
F3:89:79:49:6C:B3,1748009017.1235454,-0.024,-0.043,9.974,0.52112,6e-05,0.00232,-0.85342
F3:89:79:49:6C:B3,1748009017.1540396,-0.024,-0.043,9.974,0.52112,6e-05,0.00232,-0.85342
F3:89:79:49:6C:B3,1748009017.1550364,-0.024,-0.029,9.974,0.52112,6e-05,0.00232,-0.85342
F3:89:79:49:6C:B3,1748009017.1570406,-0.024,-0.029,9.974,0.52112,6e-05,0.00232,-0.85342
F3:89:79:49:6C:B3,1748009017.1570406,-0.034,-0.024,9.979,0.52112,6e-05,0.00232,-0.85342
C3:16:82:EF:1B:48,1748009017.1701028,0.11,-0.053,10.056,0.021,-0.00565,0.00269,-0.99973
C3:16:82:EF:1B:48,1748009017.1713006,0.105,-0.053,10.065,0.021,-0.00565,0.00269,-0.99973
C3:16:82:EF:1B:48,1748009017.1727676,0.105,-0.053,10.065,0.021,-0.00565,0.00269,-0.99973
C3:16:82:EF:1B:48,1748009017.173824,0.096,-0.062,10.06,0.021,-0.00565,0.00269,-0.99973
F3:89:79:49:6C:B3,1748009017.1845374,-0.034,-0.024,9.979,0.52112,6e-05,0.00232,-0.85342
F3:89:79:49:6C:B3,1748009017.185536,-0.034,-0.024,9.969,0.52112,6e-05,0.00232,-0.85342
F3:89:79:49:6C:B3,1748009017.1869266,-0.034,-0.024,9.969,0.52112,6e-05,0.00232,-0.85342
F3:89:79:49:6C:B3,1748009017.1889293,-0.014,-0.034,9.965,0.52112,6e-05,0.00232,-0.85342
C3:16:82:EF:1B:48,1748009017.1980643,0.096,-0.062,10.06,0.021,-0.00568,0.00269,-0.99973
C3:16:82:EF:1B:48,1748009017.199996,0.101,-0.057,10.051,0.021,-0.00568,0.00269,-0.99973
C3:16:82:EF:1B:48,1748009017.2013555,0.101,-0.057,10.051,0.021,-0.00568,0.00269,-0.99973
C3:16:82:EF:1B:48,1748009017.2029943,0.115,-0.048,10.06,0.021,-0.00568,0.00269,-0.99973
F3:89:79:49:6C:B3,1748009017.2399275,-0.014,-0.034,9.965,0.52112,6e-05,0.00232,-0.85342
F3:89:79:49:6C:B3,1748009017.2399275,-0.005,-0.053,9.965,0.52112,6e-05,0.00229,-0.85342
F3:89:79:49:6C:B3,1748009017.270314,-0.005,-0.053,9.965,0.52112,6e-05,0.00229,-0.85342
F3:89:79:49:6C:B3,1748009017.2719846,-0.014,-0.067,9.974,0.52112,6e-05,0.00229,-0.85342
C3:16:82:EF:1B:48,1748009017.2736177,0.115,-0.048,10.06,0.021,-0.00568,0.00269,-0.99973
C3:16:82:EF:1B:48,1748009017.2742522,0.129,-0.057,10.06,0.021,-0.00568,0.00269,-0.99973
C3:16:82:EF:1B:48,1748009017.2957091,0.129,-0.057,10.06,0.021,-0.00568,0.00269,-0.99973
C3:16:82:EF:1B:48,1748009017.2957091,0.139,-0.067,10.051,0.021,-0.00568,0.00269,-0.99973
F3:89:79:49:6C:B3,1748009017.2970688,-0.014,-0.067,9.974,0.52112,6e-05,0.00229,-0.85342
F3:89:79:49:6C:B3,1748009017.2977102,-0.019,-0.053,9.965,0.52112,6e-05,0.00229,-0.85342
F3:89:79:49:6C:B3,1748009017.298715,-0.019,-0.053,9.965,0.52112,6e-05,0.00229,-0.85342
F3:89:79:49:6C:B3,1748009017.298715,-0.019,-0.029,9.974,0.52112,6e-05,0.00229,-0.85342
C3:16:82:EF:1B:48,1748009017.306218,0.139,-0.067,10.051,0.021,-0.00568,0.00269,-0.99973
C3:16:82:EF:1B:48,1748009017.3179333,0.115,-0.062,10.056,0.021,-0.00568,0.00269,-0.99973
C3:16:82:EF:1B:48,1748009017.3189538,0.115,-0.062,10.056,0.021,-0.00568,0.00269,-0.99973
C3:16:82:EF:1B:48,1748009017.3189538,0.096,-0.048,10.065,0.021,-0.00568,0.00269,-0.99973
F3:89:79:49:6C:B3,1748009017.3229492,-0.019,-0.029,9.974,0.52112,6e-05,0.00229,-0.85342
F3:89:79:49:6C:B3,1748009017.3342981,-0.038,-0.01,9.984,0.52112,6e-05,0.00229,-0.85342
F3:89:79:49:6C:B3,1748009017.3342981,-0.038,-0.01,9.984,0.52112,6e-05,0.00229,-0.85342
F3:89:79:49:6C:B3,1748009017.3353155,-0.048,-0.024,9.969,0.52112,6e-05,0.00229,-0.85342
C3:16:82:EF:1B:48,1748009017.3363104,0.096,-0.048,10.065,0.021,-0.00568,0.00269,-0.99973
C3:16:82:EF:1B:48,1748009017.3373206,0.081,-0.062,10.07,0.021,-0.00568,0.00269,-0.99973
C3:16:82:EF:1B:48,1748009017.358341,0.081,-0.062,10.07,0.021,-0.00568,0.00269,-0.99973
C3:16:82:EF:1B:48,1748009017.3593357,0.086,-0.067,10.06,0.021,-0.00568,0.00269,-0.99973
C3:16:82:EF:1B:48,1748009017.3603423,0.086,-0.067,10.06,0.021,-0.00568,0.00269,-0.99973
C3:16:82:EF:1B:48,1748009017.3603423,0.11,-0.053,10.06,0.021,-0.00568,0.00269,-0.99973
C3:16:82:EF:1B:48,1748009017.3613381,0.11,-0.053,10.06,0.021,-0.00568,0.00269,-0.99973
C3:16:82:EF:1B:48,1748009017.3613381,0.129,-0.038,10.06,0.021,-0.00568,0.00269,-0.99973
F3:89:79:49:6C:B3,1748009017.4004657,-0.048,-0.024,9.969,0.52112,6e-05,0.00229,-0.85342
F3:89:79:49:6C:B3,1748009017.4004657,-0.034,-0.034,9.974,0.52112,6e-05,0.00229,-0.85342
F3:89:79:49:6C:B3,1748009017.4014714,-0.034,-0.034,9.974,0.52112,6e-05,0.00229,-0.85342
F3:89:79:49:6C:B3,1748009017.4024708,-0.01,-0.043,9.965,0.52112,6e-05,0.00229,-0.85342
F3:89:79:49:6C:B3,1748009017.4034681,-0.01,-0.043,9.965,0.52112,6e-05,0.00229,-0.85342
F3:89:79:49:6C:B3,1748009017.4044714,-0.005,-0.053,9.965,0.52112,6e-05,0.00229,-0.85342
F3:89:79:49:6C:B3,1748009017.4251416,-0.005,-0.053,9.965,0.52112,6e-05,0.00229,-0.85342
F3:89:79:49:6C:B3,1748009017.4251416,-0.014,-0.053,9.965,0.52112,6e-05,0.00229,-0.85342
C3:16:82:EF:1B:48,1748009017.4261367,0.129,-0.038,10.06,0.021,-0.00568,0.00269,-0.99973
C3:16:82:EF:1B:48,1748009017.4271379,0.139,-0.048,10.056,0.021,-0.00565,0.00269,-0.99973
C3:16:82:EF:1B:48,1748009017.4281418,0.139,-0.048,10.056,0.021,-0.00565,0.00269,-0.99973
C3:16:82:EF:1B:48,1748009017.429137,0.124,-0.062,10.06,0.021,-0.00565,0.00269,-0.99973
F3:89:79:49:6C:B3,1748009017.452618,-0.014,-0.053,9.965,0.52112,6e-05,0.00229,-0.85342
F3:89:79:49:6C:B3,1748009017.452618,-0.034,-0.048,9.974,0.52112,6e-05,0.00229,-0.85342
F3:89:79:49:6C:B3,1748009017.4576356,-0.034,-0.048,9.974,0.52112,6e-05,0.00229,-0.85342
F3:89:79:49:6C:B3,1748009017.4576356,-0.034,-0.019,9.969,0.52112,6e-05,0.00229,-0.85342
C3:16:82:EF:1B:48,1748009017.4576356,0.124,-0.062,10.06,0.021,-0.00565,0.00269,-0.99973
C3:16:82:EF:1B:48,1748009017.4576356,0.101,-0.067,10.065,0.021,-0.00565,0.00269,-0.99973
C3:16:82:EF:1B:48,1748009017.4701982,0.101,-0.067,10.065,0.021,-0.00565,0.00269,-0.99973
C3:16:82:EF:1B:48,1748009017.4721954,0.096,-0.053,10.06,0.021,-0.00565,0.00269,-0.99973
C3:16:82:EF:1B:48,1748009017.4721954,0.096,-0.053,10.06,0.021,-0.00565,0.00269,-0.99973
C3:16:82:EF:1B:48,1748009017.473145,0.101,-0.053,10.065,0.021,-0.00565,0.00269,-0.99973
C3:16:82:EF:1B:48,1748009017.473145,0.101,-0.053,10.065,0.021,-0.00565,0.00269,-0.99973
C3:16:82:EF:1B:48,1748009017.473145,0.115,-0.048,10.06,0.021,-0.00565,0.00269,-0.99973
F3:89:79:49:6C:B3,1748009017.4928489,-0.034,-0.019,9.969,0.52112,6e-05,0.00229,-0.85342
F3:89:79:49:6C:B3,1748009017.493848,-0.029,-0.019,9.969,0.52112,6e-05,0.00232,-0.85342
F3:89:79:49:6C:B3,1748009017.494849,-0.029,-0.019,9.969,0.52112,6e-05,0.00232,-0.85342
F3:89:79:49:6C:B3,1748009017.4958484,-0.019,-0.034,9.969,0.52112,6e-05,0.00232,-0.85342
F3:89:79:49:6C:B3,1748009017.505579,-0.019,-0.034,9.969,0.52112,6e-05,0.00232,-0.85342
F3:89:79:49:6C:B3,1748009017.505579,-0.01,-0.043,9.965,0.52112,6e-05,0.00232,-0.85342
F3:89:79:49:6C:B3,1748009017.505579,-0.01,-0.043,9.965,0.52112,6e-05,0.00232,-0.85342
F3:89:79:49:6C:B3,1748009017.505579,-0.024,-0.043,9.965,0.52112,6e-05,0.00232,-0.85342
C3:16:82:EF:1B:48,1748009017.529433,0.115,-0.048,10.06,0.021,-0.00565,0.00269,-0.99973
C3:16:82:EF:1B:48,1748009017.5305884,0.124,-0.048,10.06,0.021,-0.00565,0.00269,-0.99973
C3:16:82:EF:1B:48,1748009017.5314226,0.124,-0.048,10.06,0.021,-0.00565,0.00269,-0.99973
C3:16:82:EF:1B:48,1748009017.5314226,0.12,-0.057,10.06,0.021,-0.00565,0.00269,-0.99973
F3:89:79:49:6C:B3,1748009017.5508437,-0.024,-0.043,9.965,0.52112,6e-05,0.00232,-0.85342
F3:89:79:49:6C:B3,1748009017.5508437,-0.024,-0.048,9.974,0.52112,6e-05,0.00232,-0.85342
F3:89:79:49:6C:B3,1748009017.5518448,-0.024,-0.048,9.974,0.52112,6e-05,0.00232,-0.85342
F3:89:79:49:6C:B3,1748009017.5528405,-0.029,-0.043,9.969,0.52112,6e-05,0.00232,-0.85342
C3:16:82:EF:1B:48,1748009017.5575063,0.12,-0.057,10.06,0.021,-0.00565,0.00269,-0.99973
C3:16:82:EF:1B:48,1748009017.5575063,0.115,-0.072,10.056,0.021,-0.00565,0.00269,-0.99973
C3:16:82:EF:1B:48,1748009017.5575063,0.115,-0.072,10.056,0.021,-0.00565,0.00269,-0.99973
C3:16:82:EF:1B:48,1748009017.5575063,0.115,-0.067,10.065,0.021,-0.00565,0.00269,-0.99973
C3:16:82:EF:1B:48,1748009017.5890062,0.115,-0.067,10.065,0.021,-0.00565,0.00269,-0.99973
C3:16:82:EF:1B:48,1748009017.5903606,0.11,-0.043,10.06,0.021,-0.00565,0.00269,-0.99973
C3:16:82:EF:1B:48,1748009017.6168227,0.11,-0.043,10.06,0.021,-0.00565,0.00269,-0.99973
C3:16:82:EF:1B:48,1748009017.61788,0.105,-0.038,10.056,0.021,-0.00565,0.00269,-0.99973
F3:89:79:49:6C:B3,1748009017.61788,-0.029,-0.043,9.969,0.52112,6e-05,0.00232,-0.85342
F3:89:79:49:6C:B3,1748009017.6191761,-0.024,-0.024,9.974,0.52112,6e-05,0.00232,-0.85342
F3:89:79:49:6C:B3,1748009017.6198246,-0.024,-0.024,9.974,0.52112,6e-05,0.00232,-0.85342
F3:89:79:49:6C:B3,1748009017.6208239,-0.01,-0.029,9.969,0.52112,6e-05,0.00232,-0.85342
F3:89:79:49:6C:B3,1748009017.6220827,-0.01,-0.029,9.969,0.52112,6e-05,0.00232,-0.85342
F3:89:79:49:6C:B3,1748009017.6220827,-0.014,-0.029,9.965,0.52112,6e-05,0.00232,-0.85342
F3:89:79:49:6C:B3,1748009017.6367378,-0.014,-0.029,9.965,0.52112,6e-05,0.00232,-0.85342
F3:89:79:49:6C:B3,1748009017.6377554,-0.024,-0.043,9.974,0.52112,6e-05,0.00232,-0.85342
C3:16:82:EF:1B:48,1748009017.6491363,0.105,-0.038,10.056,0.021,-0.00565,0.00269,-0.99973
C3:16:82:EF:1B:48,1748009017.6502864,0.115,-0.053,10.056,0.021,-0.00565,0.00269,-0.99973
C3:16:82:EF:1B:48,1748009017.6787243,0.115,-0.053,10.056,0.021,-0.00565,0.00269,-0.99973
C3:16:82:EF:1B:48,1748009017.6797252,0.105,-0.057,10.06,0.021,-0.00565,0.00269,-0.99973
C3:16:82:EF:1B:48,1748009017.6807215,0.105,-0.057,10.06,0.021,-0.00565,0.00269,-0.99973
C3:16:82:EF:1B:48,1748009017.6817257,0.11,-0.062,10.065,0.021,-0.00565,0.00269,-0.99973
C3:16:82:EF:1B:48,1748009017.6837249,0.11,-0.062,10.065,0.021,-0.00565,0.00269,-0.99973
C3:16:82:EF:1B:48,1748009017.684725,0.11,-0.057,10.06,0.021,-0.00565,0.00269,-0.99973
F3:89:79:49:6C:B3,1748009017.6917493,-0.024,-0.043,9.974,0.52112,6e-05,0.00232,-0.85342
F3:89:79:49:6C:B3,1748009017.6917493,-0.034,-0.038,9.965,0.52112,6e-05,0.00232,-0.85342
F3:89:79:49:6C:B3,1748009017.6917493,-0.034,-0.038,9.965,0.52112,6e-05,0.00232,-0.85342
F3:89:79:49:6C:B3,1748009017.6917493,-0.034,-0.038,9.969,0.52112,6e-05,0.00232,-0.85342
C3:16:82:EF:1B:48,1748009017.7090518,0.11,-0.057,10.06,0.021,-0.00565,0.00269,-0.99973
C3:16:82:EF:1B:48,1748009017.7100444,0.11,-0.057,10.065,0.021,-0.00565,0.00269,-0.99973
C3:16:82:EF:1B:48,1748009017.7110403,0.11,-0.057,10.065,0.021,-0.00565,0.00269,-0.99973
C3:16:82:EF:1B:48,1748009017.7120385,0.11,-0.053,10.051,0.021,-0.00565,0.00269,-0.99973
F3:89:79:49:6C:B3,1748009017.7244303,-0.034,-0.038,9.969,0.52112,6e-05,0.00232,-0.85342
F3:89:79:49:6C:B3,1748009017.7254348,-0.029,-0.034,9.969,0.52112,6e-05,0.00232,-0.85342
F3:89:79:49:6C:B3,1748009017.726429,-0.029,-0.034,9.969,0.52112,6e-05,0.00232,-0.85342
F3:89:79:49:6C:B3,1748009017.727433,-0.024,-0.038,9.969,0.52112,6e-05,0.00232,-0.85342
F3:89:79:49:6C:B3,1748009017.7545753,-0.024,-0.038,9.969,0.52112,6e-05,0.00232,-0.85342
F3:89:79:49:6C:B3,1748009017.756252,-0.019,-0.034,9.969,0.52112,6e-05,0.00232,-0.85342
F3:89:79:49:6C:B3,1748009017.756252,-0.019,-0.034,9.969,0.52112,6e-05,0.00232,-0.85342
F3:89:79:49:6C:B3,1748009017.7583961,-0.014,-0.029,9.969,0.52112,6e-05,0.00232,-0.85342
C3:16:82:EF:1B:48,1748009017.7693276,0.11,-0.053,10.051,0.021,-0.00565,0.00269,-0.99973
C3:16:82:EF:1B:48,1748009017.7704098,0.11,-0.043,10.051,0.021,-0.00565,0.00269,-0.99973
C3:16:82:EF:1B:48,1748009017.8016262,0.11,-0.043,10.051,0.021,-0.00565,0.00269,-0.99973
C3:16:82:EF:1B:48,1748009017.8016262,0.115,-0.043,10.056,0.021,-0.00565,0.00269,-0.99973
C3:16:82:EF:1B:48,1748009017.8036098,0.115,-0.043,10.056,0.021,-0.00565,0.00269,-0.99973
C3:16:82:EF:1B:48,1748009017.8052676,0.115,-0.057,10.056,0.021,-0.00565,0.00269,-0.99973
C3:16:82:EF:1B:48,1748009017.832017,0.115,-0.057,10.056,0.021,-0.00565,0.00269,-0.99973
C3:16:82:EF:1B:48,1748009017.832017,0.115,-0.072,10.06,0.021,-0.00565,0.00269,-0.99973
F3:89:79:49:6C:B3,1748009017.8330107,-0.014,-0.029,9.969,0.52112,6e-05,0.00232,-0.85342
F3:89:79:49:6C:B3,1748009017.834024,-0.019,-0.029,9.965,0.52112,6e-05,0.00232,-0.85342
F3:89:79:49:6C:B3,1748009017.8360128,-0.019,-0.029,9.965,0.52112,6e-05,0.00232,-0.85342
F3:89:79:49:6C:B3,1748009017.8370156,-0.034,-0.043,9.974,0.52112,6e-05,0.00232,-0.85342
C3:16:82:EF:1B:48,1748009017.8390207,0.115,-0.072,10.06,0.021,-0.00565,0.00269,-0.99973
C3:16:82:EF:1B:48,1748009017.8400185,0.11,-0.067,10.06,0.021,-0.00565,0.00269,-0.99973
C3:16:82:EF:1B:48,1748009017.8410194,0.11,-0.067,10.06,0.021,-0.00565,0.00269,-0.99973
C3:16:82:EF:1B:48,1748009017.842202,0.11,-0.048,10.056,0.021,-0.00565,0.00269,-0.99973
F3:89:79:49:6C:B3,1748009017.8682094,-0.034,-0.043,9.974,0.52112,6e-05,0.00232,-0.85342
F3:89:79:49:6C:B3,1748009017.8692017,-0.038,-0.048,9.969,0.52112,6e-05,0.00232,-0.85342
F3:89:79:49:6C:B3,1748009017.8702013,-0.038,-0.048,9.969,0.52112,6e-05,0.00232,-0.85342
F3:89:79:49:6C:B3,1748009017.8712058,-0.024,-0.038,9.974,0.52112,6e-05,0.00232,-0.85342
F3:89:79:49:6C:B3,1748009017.8742483,-0.024,-0.038,9.974,0.52112,6e-05,0.00232,-0.85342
F3:89:79:49:6C:B3,1748009017.8742483,-0.014,-0.029,9.969,0.52112,6e-05,0.00232,-0.85342
F3:89:79:49:6C:B3,1748009017.8742483,-0.014,-0.029,9.969,0.52112,6e-05,0.00232,-0.85342
F3:89:79:49:6C:B3,1748009017.8742483,-0.019,-0.029,9.965,0.52112,6e-05,0.00232,-0.85342
C3:16:82:EF:1B:48,1748009017.8899686,0.11,-0.048,10.056,0.021,-0.00565,0.00269,-0.99973
C3:16:82:EF:1B:48,1748009017.891284,0.11,-0.038,10.06,0.021,-0.00565,0.00269,-0.99973
C3:16:82:EF:1B:48,1748009017.8919234,0.11,-0.038,10.06,0.021,-0.00565,0.00269,-0.99973
C3:16:82:EF:1B:48,1748009017.8929238,0.101,-0.048,10.06,0.021,-0.00565,0.00269,-0.99973
C3:16:82:EF:1B:48,1748009017.9190683,0.101,-0.048,10.06,0.021,-0.00565,0.00269,-0.99973
C3:16:82:EF:1B:48,1748009017.9212923,0.105,-0.062,10.065,0.021,-0.00565,0.00269,-0.99973
C3:16:82:EF:1B:48,1748009017.9517045,0.105,-0.062,10.065,0.021,-0.00565,0.00269,-0.99973
C3:16:82:EF:1B:48,1748009017.9527113,0.11,-0.062,10.06,0.021,-0.00565,0.00269,-0.99973
F3:89:79:49:6C:B3,1748009017.953412,-0.019,-0.029,9.965,0.52112,6e-05,0.00232,-0.85342
F3:89:79:49:6C:B3,1748009017.9546568,-0.029,-0.034,9.969,0.52112,6e-05,0.00232,-0.85342
F3:89:79:49:6C:B3,1748009017.9546568,-0.029,-0.034,9.969,0.52112,6e-05,0.00232,-0.85342
F3:89:79:49:6C:B3,1748009017.955653,-0.029,-0.038,9.974,0.52112,6e-05,0.00232,-0.85342
C3:16:82:EF:1B:48,1748009017.9791512,0.11,-0.062,10.06,0.021,-0.00565,0.00269,-0.99973
C3:16:82:EF:1B:48,1748009017.9801579,0.115,-0.053,10.056,0.021,-0.00565,0.00269,-0.99973
C3:16:82:EF:1B:48,1748009017.9801579,0.115,-0.053,10.056,0.021,-0.00565,0.00269,-0.99973
C3:16:82:EF:1B:48,1748009017.9811578,0.124,-0.062,10.06,0.021,-0.00565,0.00269,-0.99973
F3:89:79:49:6C:B3,1748009017.99393,-0.029,-0.038,9.974,0.52112,6e-05,0.00229,-0.85342
F3:89:79:49:6C:B3,1748009017.9949226,-0.024,-0.038,9.969,0.52112,6e-05,0.00229,-0.85342
F3:89:79:49:6C:B3,1748009017.9959254,-0.024,-0.038,9.969,0.52112,6e-05,0.00229,-0.85342
F3:89:79:49:6C:B3,1748009017.9970963,-0.019,-0.043,9.969,0.52112,6e-05,0.00229,-0.85342
F3:89:79:49:6C:B3,1748009017.9989235,-0.019,-0.043,9.969,0.52112,6e-05,0.00229,-0.85342
F3:89:79:49:6C:B3,1748009017.9989235,-0.024,-0.048,9.969,0.52112,6e-05,0.00229,-0.85342
F3:89:79:49:6C:B3,1748009017.9999354,-0.024,-0.048,9.969,0.52112,6e-05,0.00229,-0.85342
F3:89:79:49:6C:B3,1748009018.0009325,-0.019,-0.034,9.965,0.52112,6e-05,0.00229,-0.85342
C3:16:82:EF:1B:48,1748009018.0399544,0.124,-0.062,10.06,0.021,-0.00565,0.00269,-0.99973
C3:16:82:EF:1B:48,1748009018.0409517,0.12,-0.057,10.06,0.021,-0.00565,0.00269,-0.99973
C3:16:82:EF:1B:48,1748009018.0419545,0.12,-0.057,10.06,0.021,-0.00565,0.00269,-0.99973
C3:16:82:EF:1B:48,1748009018.043576,0.105,-0.053,10.056,0.021,-0.00565,0.00269,-0.99973
C3:16:82:EF:1B:48,1748009018.0447516,0.105,-0.053,10.056,0.021,-0.00565,0.00269,-0.99973
C3:16:82:EF:1B:48,1748009018.0467443,0.096,-0.043,10.06,0.021,-0.00565,0.00269,-0.99973
C3:16:82:EF:1B:48,1748009018.0807824,0.096,-0.043,10.06,0.021,-0.00565,0.00269,-0.99973
C3:16:82:EF:1B:48,1748009018.0807824,0.096,-0.053,10.06,0.021,-0.00565,0.00269,-0.99973
F3:89:79:49:6C:B3,1748009018.1074896,-0.019,-0.034,9.965,0.52112,6e-05,0.00229,-0.85342
F3:89:79:49:6C:B3,1748009018.108488,-0.024,-0.019,9.969,0.52112,6e-05,0.00229,-0.85342
F3:89:79:49:6C:B3,1748009018.1094904,-0.024,-0.019,9.969,0.52112,6e-05,0.00229,-0.85342
F3:89:79:49:6C:B3,1748009018.1114898,-0.024,-0.019,9.974,0.52112,6e-05,0.00229,-0.85342
C3:16:82:EF:1B:48,1748009018.1124878,0.096,-0.053,10.06,0.021,-0.00565,0.00269,-0.99973
C3:16:82:EF:1B:48,1748009018.113489,0.11,-0.057,10.06,0.021,-0.00565,0.00269,-0.99973
C3:16:82:EF:1B:48,1748009018.1144934,0.11,-0.057,10.06,0.021,-0.00565,0.00269,-0.99973
C3:16:82:EF:1B:48,1748009018.1144934,0.124,-0.067,10.056,0.021,-0.00565,0.00269,-0.99973
F3:89:79:49:6C:B3,1748009018.11649,-0.024,-0.019,9.974,0.52112,6e-05,0.00229,-0.85342
F3:89:79:49:6C:B3,1748009018.1174889,-0.029,-0.038,9.965,0.52112,6e-05,0.00229,-0.85342
F3:89:79:49:6C:B3,1748009018.1174889,-0.029,-0.053,9.965,0.52112,6e-05,0.00229,-0.85342
F3:89:79:49:6C:B3,1748009018.1411862,-0.029,-0.053,9.965,0.52112,6e-05,0.00229,-0.85342
F3:89:79:49:6C:B3,1748009018.1421852,-0.024,-0.053,9.969,0.52112,6e-05,0.00229,-0.85342
F3:89:79:49:6C:B3,1748009018.1421852,-0.024,-0.053,9.969,0.52112,6e-05,0.00229,-0.85342
F3:89:79:49:6C:B3,1748009018.143184,-0.014,-0.038,9.965,0.52112,6e-05,0.00229,-0.85342
F3:89:79:49:6C:B3,1748009018.159186,-0.014,-0.038,9.965,0.52112,6e-05,0.00229,-0.85342
C3:16:82:EF:1B:48,1748009018.1601815,0.124,-0.067,10.056,0.021,-0.00565,0.00269,-0.99973
C3:16:82:EF:1B:48,1748009018.1621852,0.129,-0.057,10.056,0.021,-0.00565,0.00269,-0.99973
C3:16:82:EF:1B:48,1748009018.1621852,0.129,-0.057,10.056,0.021,-0.00565,0.00269,-0.99973
C3:16:82:EF:1B:48,1748009018.1621852,0.12,-0.043,10.056,0.021,-0.00565,0.00269,-0.99973
C3:16:82:EF:1B:48,1748009018.1781166,0.12,-0.043,10.056,0.021,-0.00565,0.00269,-0.99973
C3:16:82:EF:1B:48,1748009018.1791875,0.101,-0.053,10.056,0.021,-0.00565,0.00269,-0.99973
C3:16:82:EF:1B:48,1748009018.1896513,0.101,-0.053,10.056,0.021,-0.00565,0.00269,-0.99973
C3:16:82:EF:1B:48,1748009018.1896513,0.091,-0.067,10.065,0.021,-0.00565,0.00269,-0.99973
F3:89:79:49:6C:B3,1748009018.1896513,-0.014,-0.024,9.969,0.52112,6e-05,0.00229,-0.85342
F3:89:79:49:6C:B3,1748009018.1896513,-0.014,-0.024,9.969,0.52112,6e-05,0.00229,-0.85342
F3:89:79:49:6C:B3,1748009018.1896513,-0.038,-0.029,9.969,0.52112,6e-05,0.00229,-0.85342
F3:89:79:49:6C:B3,1748009018.1969883,-0.038,-0.029,9.969,0.52112,6e-05,0.00229,-0.85342
C3:16:82:EF:1B:48,1748009018.1969883,0.091,-0.067,10.065,0.021,-0.00565,0.00269,-0.99973
C3:16:82:EF:1B:48,1748009018.1979961,0.101,-0.062,10.06,0.021,-0.00565,0.00269,-0.99973
C3:16:82:EF:1B:48,1748009018.1979961,0.101,-0.062,10.06,0.021,-0.00565,0.00269,-0.99973
C3:16:82:EF:1B:48,1748009018.1989987,0.12,-0.043,10.056,0.021,-0.00565,0.00269,-0.99973
F3:89:79:49:6C:B3,1748009018.244976,-0.034,-0.029,9.969,0.52112,6e-05,0.00229,-0.85342
F3:89:79:49:6C:B3,1748009018.2459762,-0.034,-0.029,9.969,0.52112,6e-05,0.00229,-0.85342
F3:89:79:49:6C:B3,1748009018.2459762,-0.019,-0.034,9.965,0.52112,6e-05,0.00229,-0.85342
F3:89:79:49:6C:B3,1748009018.2469754,-0.019,-0.034,9.965,0.52112,6e-05,0.00229,-0.85342
F3:89:79:49:6C:B3,1748009018.2469754,-0.005,-0.043,9.969,0.52112,6e-05,0.00229,-0.85342
F3:89:79:49:6C:B3,1748009018.2479756,-0.005,-0.043,9.969,0.52112,6e-05,0.00229,-0.85342
F3:89:79:49:6C:B3,1748009018.248975,-0.014,-0.057,9.969,0.52112,6e-05,0.00229,-0.85342
F3:89:79:49:6C:B3,1748009018.2651374,-0.014,-0.057,9.969,0.52112,6e-05,0.00229,-0.85342
C3:16:82:EF:1B:48,1748009018.2791727,0.12,-0.043,10.056,0.021,-0.00565,0.00269,-0.99973
C3:16:82:EF:1B:48,1748009018.2791727,0.129,-0.048,10.06,0.021,-0.00565,0.00269,-0.99973
C3:16:82:EF:1B:48,1748009018.2791727,0.129,-0.048,10.06,0.021,-0.00565,0.00269,-0.99973
C3:16:82:EF:1B:48,1748009018.2791727,0.134,-0.062,10.06,0.021,-0.00565,0.00269,-0.99973
F3:89:79:49:6C:B3,1748009018.2956772,-0.029,-0.057,9.965,0.52112,6e-05,0.00229,-0.85342
F3:89:79:49:6C:B3,1748009018.296677,-0.029,-0.057,9.965,0.52112,6e-05,0.00229,-0.85342
F3:89:79:49:6C:B3,1748009018.296677,-0.034,-0.034,9.965,0.52112,6e-05,0.00229,-0.85342
F3:89:79:49:6C:B3,1748009018.3066096,-0.034,-0.034,9.965,0.52112,6e-05,0.00229,-0.85342
C3:16:82:EF:1B:48,1748009018.3158443,0.134,-0.062,10.06,0.021,-0.00565,0.00269,-0.99973
C3:16:82:EF:1B:48,1748009018.3158443,0.124,-0.067,10.065,0.021,-0.00565,0.00269,-0.99973
C3:16:82:EF:1B:48,1748009018.3158443,0.124,-0.067,10.065,0.021,-0.00565,0.00269,-0.99973
C3:16:82:EF:1B:48,1748009018.3168628,0.101,-0.062,10.06,0.021,-0.00565,0.00269,-0.99973
F3:89:79:49:6C:B3,1748009018.3228106,-0.024,-0.019,9.979,0.52112,6e-05,0.00229,-0.85342
F3:89:79:49:6C:B3,1748009018.3228106,-0.024,-0.019,9.979,0.52112,6e-05,0.00229,-0.85342
F3:89:79:49:6C:B3,1748009018.3228106,-0.019,-0.019,9.974,0.52112,6e-05,0.00229,-0.85342
F3:89:79:49:6C:B3,1748009018.3228106,-0.019,-0.019,9.974,0.52112,6e-05,0.00229,-0.85342
C3:16:82:EF:1B:48,1748009018.3387806,0.101,-0.062,10.06,0.021,-0.00565,0.00269,-0.99973
C3:16:82:EF:1B:48,1748009018.3397806,0.096,-0.043,10.06,0.021,-0.00565,0.00269,-0.99973
C3:16:82:EF:1B:48,1748009018.368782,0.096,-0.043,10.06,0.021,-0.00565,0.00269,-0.99973
C3:16:82:EF:1B:48,1748009018.369821,0.101,-0.048,10.065,0.021,-0.00565,0.00269,-0.99973
F3:89:79:49:6C:B3,1748009018.3707786,-0.029,-0.029,9.969,0.52112,6e-05,0.00229,-0.85342
F3:89:79:49:6C:B3,1748009018.3714345,-0.029,-0.029,9.969,0.52112,6e-05,0.00229,-0.85342
F3:89:79:49:6C:B3,1748009018.3718114,-0.038,-0.048,9.96,0.52112,6e-05,0.00229,-0.85342
F3:89:79:49:6C:B3,1748009018.3729265,-0.038,-0.048,9.96,0.52112,6e-05,0.00229,-0.85342
C3:16:82:EF:1B:48,1748009018.374038,0.101,-0.048,10.065,0.021,-0.00565,0.00269,-0.99973
C3:16:82:EF:1B:48,1748009018.3750386,0.105,-0.062,10.06,0.021,-0.00565,0.00269,-0.99973
C3:16:82:EF:1B:48,1748009018.3930311,0.105,-0.062,10.06,0.021,-0.00565,0.00269,-0.99973
C3:16:82:EF:1B:48,1748009018.3930311,0.12,-0.072,10.056,0.021,-0.00565,0.00269,-0.99973
C3:16:82:EF:1B:48,1748009018.3980544,0.12,-0.072,10.056,0.021,-0.00565,0.00269,-0.99973
C3:16:82:EF:1B:48,1748009018.399056,0.124,-0.062,10.056,0.021,-0.00565,0.00269,-0.99973
C3:16:82:EF:1B:48,1748009018.4000485,0.124,-0.062,10.056,0.021,-0.00565,0.00269,-0.99973
C3:16:82:EF:1B:48,1748009018.4000485,0.12,-0.043,10.056,0.021,-0.00565,0.00269,-0.99973
F3:89:79:49:6C:B3,1748009018.4059613,-0.029,-0.043,9.969,0.52112,6e-05,0.00229,-0.85342
F3:89:79:49:6C:B3,1748009018.4141335,-0.029,-0.043,9.969,0.52112,6e-05,0.00229,-0.85342
F3:89:79:49:6C:B3,1748009018.4141335,-0.019,-0.038,9.974,0.52112,6e-05,0.00229,-0.85342
F3:89:79:49:6C:B3,1748009018.41515,-0.019,-0.038,9.974,0.52112,6e-05,0.00229,-0.85342
F3:89:79:49:6C:B3,1748009018.4437869,-0.019,-0.038,9.965,0.52112,6e-05,0.00229,-0.85342
F3:89:79:49:6C:B3,1748009018.4437869,-0.019,-0.038,9.965,0.52112,6e-05,0.00229,-0.85342
F3:89:79:49:6C:B3,1748009018.444789,-0.019,-0.034,9.96,0.52112,6e-05,0.00229,-0.85342
F3:89:79:49:6C:B3,1748009018.4457874,-0.019,-0.034,9.96,0.52112,6e-05,0.00229,-0.85342
F3:89:79:49:6C:B3,1748009018.474117,-0.024,-0.029,9.965,0.52112,6e-05,0.00229,-0.85342
F3:89:79:49:6C:B3,1748009018.4751182,-0.024,-0.029,9.965,0.52112,6e-05,0.00229,-0.85342
F3:89:79:49:6C:B3,1748009018.476131,-0.024,-0.029,9.965,0.52112,6e-05,0.00229,-0.85342
F3:89:79:49:6C:B3,1748009018.4781168,-0.024,-0.029,9.965,0.52112,6e-05,0.00229,-0.85342
C3:16:82:EF:1B:48,1748009018.4889174,0.12,-0.043,10.056,0.021,-0.00565,0.00269,-0.99973
C3:16:82:EF:1B:48,1748009018.4909143,0.115,-0.048,10.056,0.021,-0.00565,0.00269,-0.99973
C3:16:82:EF:1B:48,1748009018.4919217,0.115,-0.048,10.056,0.021,-0.00565,0.00269,-0.99973
C3:16:82:EF:1B:48,1748009018.492914,0.11,-0.048,10.06,0.021,-0.00565,0.00269,-0.99973
C3:16:82:EF:1B:48,1748009018.4939153,0.11,-0.048,10.06,0.021,-0.00568,0.00269,-0.99973
C3:16:82:EF:1B:48,1748009018.4959145,0.11,-0.053,10.056,0.021,-0.00568,0.00269,-0.99973
C3:16:82:EF:1B:48,1748009018.5231402,0.11,-0.053,10.056,0.021,-0.00568,0.00269,-0.99973
C3:16:82:EF:1B:48,1748009018.5241435,0.11,-0.048,10.06,0.021,-0.00568,0.00269,-0.99973
C3:16:82:EF:1B:48,1748009018.5480354,0.11,-0.048,10.06,0.021,-0.00568,0.00269,-0.99973
C3:16:82:EF:1B:48,1748009018.5490348,0.115,-0.062,10.06,0.021,-0.00568,0.00269,-0.99973
C3:16:82:EF:1B:48,1748009018.5637534,0.115,-0.062,10.06,0.021,-0.00568,0.00269,-0.99973
C3:16:82:EF:1B:48,1748009018.5637534,0.12,-0.067,10.051,0.021,-0.00568,0.00269,-0.99973
F3:89:79:49:6C:B3,1748009018.5647619,-0.019,-0.029,9.965,0.52112,6e-05,0.00229,-0.85342
F3:89:79:49:6C:B3,1748009018.5647619,-0.019,-0.029,9.965,0.52112,6e-05,0.00229,-0.85342
F3:89:79:49:6C:B3,1748009018.5657623,-0.034,-0.048,9.965,0.52112,6e-05,0.00229,-0.85342
F3:89:79:49:6C:B3,1748009018.5657623,-0.034,-0.048,9.965,0.52112,6e-05,0.00229,-0.85342
F3:89:79:49:6C:B3,1748009018.5667613,-0.034,-0.043,9.974,0.52112,6e-05,0.00229,-0.85342
F3:89:79:49:6C:B3,1748009018.5667613,-0.034,-0.043,9.974,0.52112,6e-05,0.00229,-0.85342
F3:89:79:49:6C:B3,1748009018.567761,-0.024,-0.034,9.969,0.52112,6e-05,0.00229,-0.85342
F3:89:79:49:6C:B3,1748009018.567761,-0.024,-0.034,9.969,0.52112,6e-05,0.00229,-0.85342
C3:16:82:EF:1B:48,1748009018.5720224,0.12,-0.067,10.051,0.021,-0.00568,0.00269,-0.99973
C3:16:82:EF:1B:48,1748009018.5720224,0.11,-0.067,10.065,0.021,-0.00568,0.00269,-0.99973
C3:16:82:EF:1B:48,1748009018.5720224,0.11,-0.067,10.065,0.021,-0.00568,0.00269,-0.99973
C3:16:82:EF:1B:48,1748009018.5720224,0.105,-0.053,10.06,0.021,-0.00568,0.00269,-0.99973
F3:89:79:49:6C:B3,1748009018.5935588,-0.024,-0.024,9.969,0.52112,6e-05,0.00229,-0.85342
F3:89:79:49:6C:B3,1748009018.5935588,-0.024,-0.024,9.969,0.52112,6e-05,0.00229,-0.85342
F3:89:79:49:6C:B3,1748009018.5945506,-0.014,-0.034,9.974,0.52112,6e-05,0.00229,-0.85342
F3:89:79:49:6C:B3,1748009018.5955508,-0.014,-0.034,9.974,0.52112,6e-05,0.00229,-0.85342
C3:16:82:EF:1B:48,1748009018.6080623,0.105,-0.053,10.06,0.021,-0.00568,0.00269,-0.99973
C3:16:82:EF:1B:48,1748009018.6090603,0.105,-0.043,10.06,0.021,-0.00568,0.00269,-0.99973
C3:16:82:EF:1B:48,1748009018.6387894,0.105,-0.043,10.06,0.021,-0.00568,0.00269,-0.99973
C3:16:82:EF:1B:48,1748009018.6408076,0.11,-0.048,10.06,0.021,-0.00568,0.00269,-0.99973
C3:16:82:EF:1B:48,1748009018.641265,0.11,-0.048,10.06,0.021,-0.00568,0.00269,-0.99973
C3:16:82:EF:1B:48,1748009018.643397,0.11,-0.053,10.056,0.021,-0.00568,0.00269,-0.99973
C3:16:82:EF:1B:48,1748009018.6728847,0.11,-0.053,10.056,0.021,-0.00568,0.00269,-0.99973
C3:16:82:EF:1B:48,1748009018.673533,0.115,-0.062,10.06,0.021,-0.00568,0.00269,-0.99973
F3:89:79:49:6C:B3,1748009018.6755323,-0.019,-0.034,9.965,0.52112,6e-05,0.00229,-0.85342
F3:89:79:49:6C:B3,1748009018.6771703,-0.019,-0.034,9.965,0.52112,6e-05,0.00229,-0.85342
F3:89:79:49:6C:B3,1748009018.678567,-0.024,-0.043,9.969,0.52112,6e-05,0.00229,-0.85342
F3:89:79:49:6C:B3,1748009018.678567,-0.024,-0.043,9.969,0.52112,6e-05,0.00229,-0.85342
F3:89:79:49:6C:B3,1748009018.678567,-0.029,-0.043,9.965,0.52112,6e-05,0.00229,-0.85342
F3:89:79:49:6C:B3,1748009018.678567,-0.029,-0.043,9.965,0.52112,6e-05,0.00229,-0.85342
F3:89:79:49:6C:B3,1748009018.678567,-0.029,-0.043,9.965,0.52112,6e-05,0.00229,-0.85342
F3:89:79:49:6C:B3,1748009018.678567,-0.029,-0.043,9.965,0.52112,6e-05,0.00229,-0.85342
F3:89:79:49:6C:B3,1748009018.7143872,-0.019,-0.034,9.969,0.52112,6e-05,0.00229,-0.85342
F3:89:79:49:6C:B3,1748009018.7155159,-0.019,-0.034,9.969,0.52112,6e-05,0.00229,-0.85342
F3:89:79:49:6C:B3,1748009018.716743,-0.019,-0.024,9.969,0.52112,6e-05,0.00229,-0.85342
F3:89:79:49:6C:B3,1748009018.7173865,-0.019,-0.024,9.969,0.52112,6e-05,0.00229,-0.85342
C3:16:82:EF:1B:48,1748009018.729418,0.115,-0.062,10.06,0.021,-0.00568,0.00269,-0.99973
C3:16:82:EF:1B:48,1748009018.7304165,0.124,-0.062,10.056,0.021,-0.00568,0.00269,-0.99973
C3:16:82:EF:1B:48,1748009018.7324224,0.124,-0.062,10.056,0.021,-0.00568,0.00269,-0.99973
C3:16:82:EF:1B:48,1748009018.7334192,0.115,-0.057,10.056,0.021,-0.00568,0.00269,-0.99973
C3:16:82:EF:1B:48,1748009018.7344198,0.115,-0.057,10.056,0.021,-0.00568,0.00269,-0.99973
C3:16:82:EF:1B:48,1748009018.7354274,0.11,-0.043,10.06,0.021,-0.00568,0.00269,-0.99973
C3:16:82:EF:1B:48,1748009018.7654135,0.11,-0.043,10.06,0.021,-0.00568,0.00269,-0.99973
C3:16:82:EF:1B:48,1748009018.7664251,0.101,-0.048,10.065,0.021,-0.00568,0.00269,-0.99973
C3:16:82:EF:1B:48,1748009018.7674153,0.101,-0.048,10.065,0.021,-0.00568,0.00269,-0.99973
C3:16:82:EF:1B:48,1748009018.7684186,0.101,-0.057,10.06,0.021,-0.00568,0.00269,-0.99973
C3:16:82:EF:1B:48,1748009018.7927203,0.101,-0.057,10.06,0.021,-0.00568,0.00269,-0.99973
C3:16:82:EF:1B:48,1748009018.7937024,0.115,-0.062,10.06,0.021,-0.00568,0.00269,-0.99973
F3:89:79:49:6C:B3,1748009018.7946978,-0.019,-0.029,9.965,0.52112,6e-05,0.00229,-0.85342
F3:89:79:49:6C:B3,1748009018.7957015,-0.019,-0.029,9.965,0.52112,6e-05,0.00229,-0.85342
F3:89:79:49:6C:B3,1748009018.7966976,-0.029,-0.043,9.974,0.52112,6e-05,0.00229,-0.85342
F3:89:79:49:6C:B3,1748009018.7966976,-0.029,-0.043,9.974,0.52112,6e-05,0.00229,-0.85342
F3:89:79:49:6C:B3,1748009018.803975,-0.019,-0.038,9.965,0.52112,6e-05,0.00229,-0.85342
F3:89:79:49:6C:B3,1748009018.8049717,-0.019,-0.038,9.965,0.52112,6e-05,0.00229,-0.85342
F3:89:79:49:6C:B3,1748009018.8059707,-0.014,-0.043,9.965,0.52112,6e-05,0.00229,-0.85342
F3:89:79:49:6C:B3,1748009018.8059707,-0.014,-0.043,9.965,0.52112,6e-05,0.00229,-0.85342
C3:16:82:EF:1B:48,1748009018.8141565,0.115,-0.062,10.06,0.021,-0.00568,0.00269,-0.99973
C3:16:82:EF:1B:48,1748009018.8141565,0.12,-0.053,10.06,0.021,-0.00568,0.00269,-0.99973
C3:16:82:EF:1B:48,1748009018.8141565,0.12,-0.053,10.06,0.021,-0.00568,0.00269,-0.99973
C3:16:82:EF:1B:48,1748009018.8141565,0.124,-0.053,10.06,0.021,-0.00568,0.00269,-0.99973
F3:89:79:49:6C:B3,1748009018.833284,-0.019,-0.043,9.965,0.52112,6e-05,0.00229,-0.85342
F3:89:79:49:6C:B3,1748009018.8342226,-0.019,-0.043,9.965,0.52112,6e-05,0.00229,-0.85342
F3:89:79:49:6C:B3,1748009018.835224,-0.034,-0.043,9.965,0.52112,6e-05,0.00229,-0.85342
F3:89:79:49:6C:B3,1748009018.8362179,-0.034,-0.043,9.965,0.52112,6e-05,0.00229,-0.85342
C3:16:82:EF:1B:48,1748009018.849136,0.124,-0.053,10.06,0.021,-0.00568,0.00269,-0.99973
C3:16:82:EF:1B:48,1748009018.8501377,0.12,-0.062,10.06,0.021,-0.00568,0.00269,-0.99973
C3:16:82:EF:1B:48,1748009018.8511384,0.12,-0.062,10.06,0.021,-0.00568,0.00269,-0.99973
C3:16:82:EF:1B:48,1748009018.8532155,0.105,-0.062,10.06,0.021,-0.00568,0.00269,-0.99973
C3:16:82:EF:1B:48,1748009018.8790317,0.105,-0.062,10.06,0.021,-0.00568,0.00269,-0.99973
C3:16:82:EF:1B:48,1748009018.8809497,0.096,-0.048,10.07,0.021,-0.00568,0.00269,-0.99973
C3:16:82:EF:1B:48,1748009018.91259,0.096,-0.048,10.07,0.021,-0.00568,0.00269,-0.99973
C3:16:82:EF:1B:48,1748009018.9134917,0.096,-0.048,10.056,0.021,-0.00568,0.00269,-0.99973
F3:89:79:49:6C:B3,1748009018.9144917,-0.024,-0.024,9.969,0.52112,6e-05,0.00229,-0.85342
F3:89:79:49:6C:B3,1748009018.9166646,-0.024,-0.024,9.969,0.52112,6e-05,0.00229,-0.85342
F3:89:79:49:6C:B3,1748009018.9178534,-0.024,-0.024,9.969,0.52112,6e-05,0.00229,-0.85342
F3:89:79:49:6C:B3,1748009018.918491,-0.024,-0.024,9.969,0.52112,6e-05,0.00229,-0.85342
F3:89:79:49:6C:B3,1748009018.9244905,-0.019,-0.034,9.979,0.52112,6e-05,0.00229,-0.85342
F3:89:79:49:6C:B3,1748009018.9254916,-0.019,-0.034,9.979,0.52112,6e-05,0.00229,-0.85342
F3:89:79:49:6C:B3,1748009018.927503,-0.024,-0.038,9.969,0.52112,6e-05,0.00229,-0.85342
F3:89:79:49:6C:B3,1748009018.928583,-0.024,-0.038,9.969,0.52112,6e-05,0.00229,-0.85342
C3:16:82:EF:1B:48,1748009018.9396706,0.096,-0.048,10.056,0.021,-0.00568,0.00269,-0.99973
C3:16:82:EF:1B:48,1748009018.9406745,0.11,-0.057,10.065,0.021,-0.00568,0.00269,-0.99973
C3:16:82:EF:1B:48,1748009018.96567,0.11,-0.057,10.065,0.021,-0.00568,0.00269,-0.99973
C3:16:82:EF:1B:48,1748009018.966669,0.12,-0.053,10.056,0.021,-0.00568,0.00269,-0.99973
F3:89:79:49:6C:B3,1748009018.968662,-0.019,-0.043,9.969,0.52112,6e-05,0.00229,-0.85342
F3:89:79:49:6C:B3,1748009018.9696653,-0.019,-0.043,9.969,0.52112,6e-05,0.00229,-0.85342
F3:89:79:49:6C:B3,1748009018.9696653,-0.019,-0.043,9.955,0.52112,6e-05,0.00229,-0.85342
F3:89:79:49:6C:B3,1748009018.9706655,-0.019,-0.043,9.955,0.52112,6e-05,0.00229,-0.85342
C3:16:82:EF:1B:48,1748009018.9714322,0.12,-0.053,10.056,0.021,-0.00568,0.00269,-0.99973
C3:16:82:EF:1B:48,1748009018.9732795,0.12,-0.053,10.051,0.021,-0.00568,0.00269,-0.99973
C3:16:82:EF:1B:48,1748009018.9732795,0.12,-0.053,10.051,0.021,-0.00568,0.00269,-0.99973
C3:16:82:EF:1B:48,1748009018.9732795,0.115,-0.053,10.056,0.021,-0.00568,0.00269,-0.99973
C3:16:82:EF:1B:48,1748009018.9994364,0.115,-0.053,10.056,0.021,-0.00568,0.00269,-0.99973
C3:16:82:EF:1B:48,1748009019.0001569,0.115,-0.062,10.065,0.021,-0.00568,0.00269,-0.99973
C3:16:82:EF:1B:48,1748009019.0021946,0.115,-0.062,10.065,0.021,-0.00568,0.00269,-0.99973
C3:16:82:EF:1B:48,1748009019.0031576,0.101,-0.057,10.056,0.021,-0.00568,0.00269,-0.99973
F3:89:79:49:6C:B3,1748009019.0143843,-0.024,-0.038,9.979,0.52112,6e-05,0.00229,-0.85342
F3:89:79:49:6C:B3,1748009019.0155299,-0.024,-0.038,9.979,0.52112,6e-05,0.00229,-0.85342
F3:89:79:49:6C:B3,1748009019.0161786,-0.029,-0.034,9.974,0.52112,6e-05,0.00229,-0.85342
F3:89:79:49:6C:B3,1748009019.0181713,-0.029,-0.034,9.974,0.52112,6e-05,0.00229,-0.85342
F3:89:79:49:6C:B3,1748009019.0439441,-0.029,-0.034,9.969,0.52112,6e-05,0.00229,-0.85342
F3:89:79:49:6C:B3,1748009019.0459437,-0.029,-0.034,9.969,0.52112,6e-05,0.00229,-0.85342
F3:89:79:49:6C:B3,1748009019.0459437,-0.024,-0.024,9.974,0.52112,6e-05,0.00229,-0.85342
F3:89:79:49:6C:B3,1748009019.0479436,-0.024,-0.024,9.974,0.52112,6e-05,0.00229,-0.85342
C3:16:82:EF:1B:48,1748009019.0590541,0.101,-0.057,10.056,0.021,-0.00568,0.00269,-0.99973
C3:16:82:EF:1B:48,1748009019.0598404,0.101,-0.053,10.06,0.021,-0.00568,0.00269,-0.99973
C3:16:82:EF:1B:48,1748009019.061375,0.101,-0.053,10.06,0.021,-0.00568,0.00269,-0.99973
C3:16:82:EF:1B:48,1748009019.0630155,0.105,-0.053,10.06,0.021,-0.00568,0.00269,-0.99973
C3:16:82:EF:1B:48,1748009019.0917306,0.105,-0.053,10.06,0.021,-0.00568,0.00269,-0.99973
C3:16:82:EF:1B:48,1748009019.0929043,0.101,-0.048,10.051,0.021,-0.00568,0.00269,-0.99973
C3:16:82:EF:1B:48,1748009019.1258087,0.101,-0.048,10.051,0.021,-0.00568,0.00269,-0.99973
C3:16:82:EF:1B:48,1748009019.127805,0.115,-0.053,10.06,0.021,-0.00568,0.00269,-0.99973
F3:89:79:49:6C:B3,1748009019.190513,-0.024,-0.034,9.974,0.52112,6e-05,0.00229,-0.85342
F3:89:79:49:6C:B3,1748009019.191515,-0.024,-0.034,9.974,0.52112,6e-05,0.00229,-0.85342
F3:89:79:49:6C:B3,1748009019.1925151,-0.024,-0.038,9.965,0.52112,6e-05,0.00229,-0.85342
F3:89:79:49:6C:B3,1748009019.1925151,-0.024,-0.038,9.965,0.52112,6e-05,0.00229,-0.85342
C3:16:82:EF:1B:48,1748009019.1935189,0.115,-0.053,10.06,0.021,-0.00568,0.00269,-0.99973
C3:16:82:EF:1B:48,1748009019.1935189,0.12,-0.057,10.06,0.021,-0.00568,0.00269,-0.99973
C3:16:82:EF:1B:48,1748009019.194517,0.12,-0.057,10.06,0.021,-0.00568,0.00269,-0.99973
C3:16:82:EF:1B:48,1748009019.1965187,0.11,-0.057,10.06,0.021,-0.00568,0.00269,-0.99973
F3:89:79:49:6C:B3,1748009019.1965187,-0.029,-0.048,9.969,0.52112,6e-05,0.00229,-0.85342
F3:89:79:49:6C:B3,1748009019.1975172,-0.029,-0.048,9.969,0.52112,6e-05,0.00229,-0.85342
F3:89:79:49:6C:B3,1748009019.1975172,-0.024,-0.048,9.969,0.52112,6e-05,0.00229,-0.85342
F3:89:79:49:6C:B3,1748009019.1985204,-0.024,-0.048,9.969,0.52112,6e-05,0.00229,-0.85342
F3:89:79:49:6C:B3,1748009019.1985204,-0.019,-0.034,9.96,0.52112,6e-05,0.00229,-0.85342
F3:89:79:49:6C:B3,1748009019.1995158,-0.019,-0.034,9.96,0.52112,6e-05,0.00229,-0.85342
F3:89:79:49:6C:B3,1748009019.2005184,-0.014,-0.034,9.965,0.52112,6e-05,0.00229,-0.85342
F3:89:79:49:6C:B3,1748009019.2005184,-0.014,-0.034,9.965,0.52112,6e-05,0.00229,-0.85342
C3:16:82:EF:1B:48,1748009019.201517,0.11,-0.057,10.06,0.021,-0.00568,0.00269,-0.99973
C3:16:82:EF:1B:48,1748009019.201517,0.11,-0.048,10.056,0.021,-0.00568,0.00269,-0.99973
C3:16:82:EF:1B:48,1748009019.220017,0.11,-0.048,10.056,0.021,-0.00568,0.00269,-0.99973
C3:16:82:EF:1B:48,1748009019.220017,0.115,-0.048,10.056,0.021,-0.00568,0.00269,-0.99973
C3:16:82:EF:1B:48,1748009019.2210345,0.115,-0.048,10.056,0.021,-0.00568,0.00269,-0.99973
C3:16:82:EF:1B:48,1748009019.2220345,0.11,-0.057,10.06,0.021,-0.00568,0.00269,-0.99973
C3:16:82:EF:1B:48,1748009019.22603,0.11,-0.057,10.06,0.021,-0.00568,0.00269,-0.99973
C3:16:82:EF:1B:48,1748009019.22603,0.105,-0.053,10.051,0.021,-0.00568,0.00269,-0.99973
F3:89:79:49:6C:B3,1748009019.236346,-0.019,-0.034,9.974,0.52112,6e-05,0.00229,-0.85342
F3:89:79:49:6C:B3,1748009019.2383664,-0.019,-0.034,9.974,0.52112,6e-05,0.00229,-0.85342
F3:89:79:49:6C:B3,1748009019.2393649,-0.024,-0.029,9.974,0.52112,6e-05,0.00229,-0.85342
F3:89:79:49:6C:B3,1748009019.2403643,-0.024,-0.029,9.974,0.52112,6e-05,0.00229,-0.85342
C3:16:82:EF:1B:48,1748009019.2413666,0.105,-0.053,10.051,0.021,-0.00568,0.00269,-0.99973
C3:16:82:EF:1B:48,1748009019.2413666,0.11,-0.057,10.065,0.021,-0.00568,0.00269,-0.99973
C3:16:82:EF:1B:48,1748009019.2413666,0.11,-0.057,10.065,0.021,-0.00568,0.00269,-0.99973
C3:16:82:EF:1B:48,1748009019.2413666,0.115,-0.062,10.065,0.021,-0.00568,0.00269,-0.99973
F3:89:79:49:6C:B3,1748009019.2534409,-0.024,-0.029,9.965,0.52112,6e-05,0.00229,-0.85342
F3:89:79:49:6C:B3,1748009019.2544577,-0.024,-0.029,9.965,0.52112,6e-05,0.00229,-0.85342
F3:89:79:49:6C:B3,1748009019.2544577,-0.034,-0.043,9.974,0.52112,6e-05,0.00229,-0.85342
F3:89:79:49:6C:B3,1748009019.25546,-0.034,-0.043,9.974,0.52112,6e-05,0.00229,-0.85342
F3:89:79:49:6C:B3,1748009019.2840383,-0.029,-0.038,9.979,0.52112,6e-05,0.00229,-0.85342
F3:89:79:49:6C:B3,1748009019.2850373,-0.029,-0.038,9.979,0.52112,6e-05,0.00229,-0.85342
F3:89:79:49:6C:B3,1748009019.2867177,-0.019,-0.034,9.965,0.52112,6e-05,0.00229,-0.85342
F3:89:79:49:6C:B3,1748009019.287766,-0.019,-0.034,9.965,0.52112,6e-05,0.00229,-0.85342
C3:16:82:EF:1B:48,1748009019.299159,0.115,-0.062,10.065,0.021,-0.00568,0.00269,-0.99973
C3:16:82:EF:1B:48,1748009019.299579,0.115,-0.057,10.06,0.021,-0.00568,0.00269,-0.99973
C3:16:82:EF:1B:48,1748009019.3007557,0.115,-0.057,10.06,0.021,-0.00568,0.00269,-0.99973
C3:16:82:EF:1B:48,1748009019.3027554,0.115,-0.048,10.06,0.021,-0.00568,0.00269,-0.99973
C3:16:82:EF:1B:48,1748009019.3225443,0.115,-0.048,10.06,0.021,-0.00568,0.00269,-0.99973
C3:16:82:EF:1B:48,1748009019.3225443,0.12,-0.062,10.06,0.021,-0.00568,0.00269,-0.99973
C3:16:82:EF:1B:48,1748009019.3401477,0.12,-0.062,10.06,0.021,-0.00568,0.00269,-0.99973
C3:16:82:EF:1B:48,1748009019.3401477,0.115,-0.057,10.056,0.021,-0.00568,0.00269,-0.99973
F3:89:79:49:6C:B3,1748009019.3525462,-0.024,-0.038,9.965,0.52112,6e-05,0.00229,-0.85342
F3:89:79:49:6C:B3,1748009019.3535657,-0.024,-0.038,9.965,0.52112,6e-05,0.00229,-0.85342
F3:89:79:49:6C:B3,1748009019.3545704,-0.024,-0.053,9.974,0.52112,6e-05,0.00229,-0.85342
F3:89:79:49:6C:B3,1748009019.3699427,-0.024,-0.053,9.974,0.52112,6e-05,0.00229,-0.85342
C3:16:82:EF:1B:48,1748009019.3749404,0.115,-0.057,10.056,0.021,-0.00568,0.00269,-0.99973
C3:16:82:EF:1B:48,1748009019.3749404,0.115,-0.048,10.06,0.021,-0.00568,0.00269,-0.99973
C3:16:82:EF:1B:48,1748009019.387743,0.115,-0.048,10.06,0.021,-0.00568,0.00269,-0.99973
C3:16:82:EF:1B:48,1748009019.387743,0.12,-0.043,10.051,0.021,-0.00568,0.00269,-0.99973
F3:89:79:49:6C:B3,1748009019.3887427,-0.01,-0.038,9.969,0.52112,6e-05,0.00229,-0.85342
F3:89:79:49:6C:B3,1748009019.4049473,-0.01,-0.038,9.969,0.52112,6e-05,0.00229,-0.85342
F3:89:79:49:6C:B3,1748009019.4049473,-0.01,-0.034,9.965,0.52112,6e-05,0.00229,-0.85342
F3:89:79:49:6C:B3,1748009019.4049473,-0.01,-0.034,9.965,0.52112,6e-05,0.00229,-0.85342
F3:89:79:49:6C:B3,1748009019.4081745,-0.029,-0.043,9.974,0.52112,6e-05,0.00229,-0.85342
F3:89:79:49:6C:B3,1748009019.4081745,-0.029,-0.043,9.974,0.52112,6e-05,0.00229,-0.85342
F3:89:79:49:6C:B3,1748009019.4091873,-0.038,-0.043,9.974,0.52112,6e-05,0.00229,-0.85342
F3:89:79:49:6C:B3,1748009019.4091873,-0.038,-0.043,9.974,0.52112,6e-05,0.00229,-0.85342
F3:89:79:49:6C:B3,1748009019.4644415,-0.034,-0.034,9.965,0.52112,6e-05,0.00229,-0.85342
F3:89:79:49:6C:B3,1748009019.4664416,-0.034,-0.034,9.965,0.52112,6e-05,0.00229,-0.85342
F3:89:79:49:6C:B3,1748009019.4674401,-0.024,-0.029,9.969,0.52112,6e-05,0.00229,-0.85342
F3:89:79:49:6C:B3,1748009019.4689655,-0.024,-0.029,9.969,0.52112,6e-05,0.00229,-0.85342
C3:16:82:EF:1B:48,1748009019.4786105,0.12,-0.043,10.051,0.021,-0.00568,0.00269,-0.99973
C3:16:82:EF:1B:48,1748009019.479612,0.11,-0.067,10.07,0.021,-0.00568,0.00269,-0.99973
C3:16:82:EF:1B:48,1748009019.5081794,0.11,-0.067,10.07,0.021,-0.00568,0.00269,-0.99973
C3:16:82:EF:1B:48,1748009019.5105748,0.105,-0.067,10.06,0.021,-0.00568,0.00269,-0.99973
C3:16:82:EF:1B:48,1748009019.5119307,0.105,-0.067,10.06,0.021,-0.00568,0.00269,-0.99973
C3:16:82:EF:1B:48,1748009019.5125852,0.101,-0.053,10.056,0.021,-0.00568,0.00269,-0.99973
C3:16:82:EF:1B:48,1748009019.5135896,0.101,-0.053,10.056,0.021,-0.00568,0.00269,-0.99973
C3:16:82:EF:1B:48,1748009019.514589,0.105,-0.048,10.07,0.021,-0.00568,0.00269,-0.99973
F3:89:79:49:6C:B3,1748009019.5228717,-0.014,-0.038,9.969,0.52112,6e-05,0.00229,-0.85342
F3:89:79:49:6C:B3,1748009019.536599,-0.014,-0.038,9.969,0.52112,6e-05,0.00229,-0.85342
F3:89:79:49:6C:B3,1748009019.5376067,-0.019,-0.034,9.96,0.52112,6e-05,0.00229,-0.85342
F3:89:79:49:6C:B3,1748009019.5376067,-0.019,-0.034,9.96,0.52112,6e-05,0.00229,-0.85342
C3:16:82:EF:1B:48,1748009019.538611,0.105,-0.048,10.07,0.021,-0.00568,0.00269,-0.99973
C3:16:82:EF:1B:48,1748009019.539607,0.115,-0.057,10.06,0.021,-0.00568,0.00269,-0.99973
C3:16:82:EF:1B:48,1748009019.5593169,0.115,-0.057,10.06,0.021,-0.00568,0.00269,-0.99973
C3:16:82:EF:1B:48,1748009019.5593169,0.115,-0.057,10.056,0.021,-0.00568,0.00269,-0.99973
F3:89:79:49:6C:B3,1748009019.5603173,-0.019,-0.048,9.96,0.52112,6e-05,0.00229,-0.85342
F3:89:79:49:6C:B3,1748009019.5603173,-0.019,-0.048,9.96,0.52112,6e-05,0.00229,-0.85342
F3:89:79:49:6C:B3,1748009019.5613198,-0.019,-0.038,9.979,0.52112,6e-05,0.00229,-0.85342
F3:89:79:49:6C:B3,1748009019.5613198,-0.019,-0.038,9.979,0.52112,6e-05,0.00229,-0.85342
C3:16:82:EF:1B:48,1748009019.5626605,0.115,-0.057,10.056,0.021,-0.00568,0.00269,-0.99973
C3:16:82:EF:1B:48,1748009019.563317,0.115,-0.057,10.051,0.021,-0.00568,0.00269,-0.99973
C3:16:82:EF:1B:48,1748009019.563317,0.115,-0.057,10.051,0.021,-0.00568,0.00269,-0.99973
C3:16:82:EF:1B:48,1748009019.5646615,0.12,-0.053,10.07,0.021,-0.00568,0.00269,-0.99973
C3:16:82:EF:1B:48,1748009019.5683208,0.12,-0.053,10.07,0.021,-0.00568,0.00269,-0.99973
C3:16:82:EF:1B:48,1748009019.5693207,0.11,-0.053,10.056,0.021,-0.00568,0.00269,-0.99973
C3:16:82:EF:1B:48,1748009019.5703206,0.11,-0.053,10.056,0.021,-0.00568,0.00269,-0.99973
C3:16:82:EF:1B:48,1748009019.571657,0.11,-0.057,10.06,0.021,-0.00568,0.00269,-0.99973
F3:89:79:49:6C:B3,1748009019.571657,-0.024,-0.038,9.969,0.52112,6e-05,0.00229,-0.85342
F3:89:79:49:6C:B3,1748009019.571657,-0.024,-0.038,9.969,0.52112,6e-05,0.00229,-0.85342
F3:89:79:49:6C:B3,1748009019.571657,-0.019,-0.034,9.96,0.52112,6e-05,0.00229,-0.85342
F3:89:79:49:6C:B3,1748009019.571657,-0.019,-0.034,9.96,0.52112,6e-05,0.00229,-0.85342
C3:16:82:EF:1B:48,1748009019.5995412,0.11,-0.057,10.06,0.021,-0.00568,0.00269,-0.99973
C3:16:82:EF:1B:48,1748009019.6008267,0.105,-0.062,10.065,0.021,-0.00568,0.00269,-0.99973
C3:16:82:EF:1B:48,1748009019.601543,0.105,-0.062,10.065,0.021,-0.00568,0.00269,-0.99973
C3:16:82:EF:1B:48,1748009019.6025426,0.11,-0.057,10.056,0.021,-0.00568,0.00269,-0.99973
F3:89:79:49:6C:B3,1748009019.6138778,-0.029,-0.043,9.969,0.52112,6e-05,0.00229,-0.85342
F3:89:79:49:6C:B3,1748009019.615896,-0.029,-0.043,9.969,0.52112,6e-05,0.00229,-0.85342
F3:89:79:49:6C:B3,1748009019.6169002,-0.034,-0.043,9.969,0.52112,6e-05,0.00229,-0.85342
F3:89:79:49:6C:B3,1748009019.6179004,-0.034,-0.043,9.969,0.52112,6e-05,0.00229,-0.85342
F3:89:79:49:6C:B3,1748009019.6441615,-0.019,-0.034,9.969,0.52112,6e-05,0.00229,-0.85342
F3:89:79:49:6C:B3,1748009019.644888,-0.019,-0.034,9.969,0.52112,6e-05,0.00229,-0.85342
F3:89:79:49:6C:B3,1748009019.645887,-0.024,-0.038,9.965,0.52112,6e-05,0.00229,-0.85342
F3:89:79:49:6C:B3,1748009019.6468906,-0.024,-0.038,9.965,0.52112,6e-05,0.00229,-0.85342
C3:16:82:EF:1B:48,1748009019.659338,0.11,-0.057,10.056,0.021,-0.00568,0.00269,-0.99973
C3:16:82:EF:1B:48,1748009019.6603382,0.11,-0.048,10.065,0.021,-0.00568,0.00269,-0.99973
C3:16:82:EF:1B:48,1748009019.6902986,0.11,-0.048,10.065,0.021,-0.00568,0.00269,-0.99973
C3:16:82:EF:1B:48,1748009019.6923003,0.115,-0.057,10.065,0.021,-0.00568,0.00269,-0.99973
C3:16:82:EF:1B:48,1748009019.7230785,0.115,-0.057,10.065,0.021,-0.00568,0.00269,-0.99973
C3:16:82:EF:1B:48,1748009019.7240806,0.105,-0.062,10.06,0.021,-0.00568,0.00269,-0.99973
C3:16:82:EF:1B:48,1748009019.7250834,0.105,-0.062,10.06,0.021,-0.00568,0.00269,-0.99973
C3:16:82:EF:1B:48,1748009019.7260804,0.11,-0.053,10.06,0.021,-0.00568,0.00269,-0.99973
F3:89:79:49:6C:B3,1748009019.7280855,-0.034,-0.038,9.969,0.52112,6e-05,0.00229,-0.85342
F3:89:79:49:6C:B3,1748009019.7280855,-0.034,-0.038,9.969,0.52112,6e-05,0.00229,-0.85342
F3:89:79:49:6C:B3,1748009019.7367032,-0.019,-0.038,9.965,0.52112,6e-05,0.00229,-0.85342
F3:89:79:49:6C:B3,1748009019.7377243,-0.019,-0.038,9.965,0.52112,6e-05,0.00229,-0.85342
F3:89:79:49:6C:B3,1748009019.738718,-0.019,-0.034,9.969,0.52112,6e-05,0.00229,-0.85342
F3:89:79:49:6C:B3,1748009019.740726,-0.019,-0.034,9.969,0.52112,6e-05,0.00229,-0.85342
F3:89:79:49:6C:B3,1748009019.7417228,-0.019,-0.038,9.965,0.52112,6e-05,0.00229,-0.85342
F3:89:79:49:6C:B3,1748009019.7427256,-0.019,-0.038,9.965,0.52112,6e-05,0.00229,-0.85342
C3:16:82:EF:1B:48,1748009019.7484663,0.11,-0.053,10.06,0.021,-0.00568,0.00269,-0.99973
C3:16:82:EF:1B:48,1748009019.749467,0.115,-0.043,10.06,0.021,-0.00568,0.00269,-0.99973
C3:16:82:EF:1B:48,1748009019.7794123,0.115,-0.043,10.06,0.021,-0.00568,0.00269,-0.99973
C3:16:82:EF:1B:48,1748009019.7804148,0.115,-0.048,10.065,0.021,-0.00568,0.00269,-0.99973
F3:89:79:49:6C:B3,1748009019.7814012,-0.029,-0.034,9.965,0.52112,6e-05,0.00229,-0.85342
F3:89:79:49:6C:B3,1748009019.7824006,-0.029,-0.034,9.965,0.52112,6e-05,0.00229,-0.85342
F3:89:79:49:6C:B3,1748009019.7824006,-0.034,-0.038,9.969,0.52112,6e-05,0.00229,-0.85342
F3:89:79:49:6C:B3,1748009019.7834003,-0.034,-0.038,9.969,0.52112,6e-05,0.00229,-0.85342
C3:16:82:EF:1B:48,1748009019.7844002,0.115,-0.048,10.065,0.021,-0.00568,0.00269,-0.99973
C3:16:82:EF:1B:48,1748009019.7844002,0.11,-0.062,10.056,0.021,-0.00568,0.00269,-0.99973
C3:16:82:EF:1B:48,1748009019.801549,0.11,-0.062,10.056,0.021,-0.00568,0.00269,-0.99973
C3:16:82:EF:1B:48,1748009019.801549,0.11,-0.067,10.056,0.021,-0.00568,0.00269,-0.99973
C3:16:82:EF:1B:48,1748009019.8082826,0.11,-0.067,10.056,0.021,-0.00568,0.00269,-0.99973
C3:16:82:EF:1B:48,1748009019.8082826,0.115,-0.057,10.056,0.021,-0.00568,0.00269,-0.99973
C3:16:82:EF:1B:48,1748009019.8092856,0.115,-0.057,10.056,0.021,-0.00568,0.00269,-0.99973
C3:16:82:EF:1B:48,1748009019.8092856,0.115,-0.048,10.056,0.021,-0.00568,0.00269,-0.99973
F3:89:79:49:6C:B3,1748009019.8230815,-0.024,-0.043,9.974,0.52112,6e-05,0.00229,-0.85342
F3:89:79:49:6C:B3,1748009019.824078,-0.024,-0.043,9.974,0.52112,6e-05,0.00229,-0.85342
F3:89:79:49:6C:B3,1748009019.824078,-0.014,-0.034,9.969,0.52112,6e-05,0.00229,-0.85342
F3:89:79:49:6C:B3,1748009019.8250785,-0.014,-0.034,9.969,0.52112,6e-05,0.00229,-0.85342
F3:89:79:49:6C:B3,1748009019.8534298,-0.01,-0.029,9.969,0.52112,6e-05,0.00229,-0.85342
F3:89:79:49:6C:B3,1748009019.8544497,-0.01,-0.029,9.969,0.52112,6e-05,0.00229,-0.85342
F3:89:79:49:6C:B3,1748009019.8561227,-0.014,-0.038,9.965,0.52112,6e-05,0.00229,-0.85342
F3:89:79:49:6C:B3,1748009019.8561227,-0.014,-0.038,9.965,0.52112,6e-05,0.00229,-0.85342
C3:16:82:EF:1B:48,1748009019.8561227,0.115,-0.048,10.056,0.021,-0.00568,0.00269,-0.99973
C3:16:82:EF:1B:48,1748009019.8561227,0.12,-0.053,10.06,0.021,-0.00568,0.00269,-0.99973
C3:16:82:EF:1B:48,1748009019.9229488,0.12,-0.053,10.06,0.021,-0.00568,0.00269,-0.99973
C3:16:82:EF:1B:48,1748009019.9264963,0.115,-0.057,10.056,0.021,-0.00568,0.00269,-0.99973
F3:89:79:49:6C:B3,1748009019.9275148,-0.024,-0.038,9.969,0.52112,6e-05,0.00229,-0.85342
F3:89:79:49:6C:B3,1748009019.9285095,-0.024,-0.038,9.969,0.52112,6e-05,0.00229,-0.85342
F3:89:79:49:6C:B3,1748009019.9285095,-0.024,-0.038,9.955,0.52112,6e-05,0.00229,-0.85342
F3:89:79:49:6C:B3,1748009019.9295132,-0.024,-0.038,9.955,0.52112,6e-05,0.00229,-0.85342
C3:16:82:EF:1B:48,1748009019.9295132,0.115,-0.057,10.056,0.021,-0.00568,0.00269,-0.99973
C3:16:82:EF:1B:48,1748009019.930506,0.11,-0.057,10.06,0.021,-0.00568,0.00269,-0.99973
C3:16:82:EF:1B:48,1748009019.930506,0.11,-0.057,10.06,0.021,-0.00568,0.00269,-0.99973
C3:16:82:EF:1B:48,1748009019.930506,0.11,-0.053,10.065,0.021,-0.00568,0.00269,-0.99973
C3:16:82:EF:1B:48,1748009019.930506,0.11,-0.053,10.065,0.021,-0.00568,0.00269,-0.99973
C3:16:82:EF:1B:48,1748009019.9325356,0.11,-0.053,10.06,0.021,-0.00568,0.00269,-0.99973
C3:16:82:EF:1B:48,1748009019.9325356,0.11,-0.053,10.06,0.021,-0.00568,0.00269,-0.99973
C3:16:82:EF:1B:48,1748009019.9325356,0.115,-0.057,10.056,0.021,-0.00568,0.00269,-0.99973
