timestamp,AccX,AccY,AccZ,AngX,AngY,AngZ,Q0,Q1,Q2,Q3
1745186081.942934,9.687,-0.139,2.308,-6.163,-76.393,-128.979,-0.29135,0.58118,0.21869,0.7276
1745186081.942934,9.596,-0.225,2.342,-6.213,-76.382,-128.864,-0.29135,0.58118,0.21869,0.7276
1745186081.9439313,9.596,-0.225,2.342,-6.262,-76.371,-128.776,-0.29135,0.58118,0.21869,0.7276
1745186081.9449303,9.457,-0.105,2.523,-6.284,-76.355,-128.727,-0.29135,0.58118,0.21869,0.7276
1745186081.9879272,9.457,-0.105,2.523,-6.279,-76.339,-128.71,-0.29135,0.58118,0.21869,0.7276
1745186082.060213,9.505,-0.062,2.456,-6.29,-76.317,-128.666,-0.29135,0.58118,0.21869,0.7276
1745186082.0612085,9.505,-0.062,2.456,-6.312,-76.289,-128.584,-0.29135,0.58118,0.21869,0.7276
1745186082.062217,9.51,-0.12,2.476,-6.356,-76.273,-128.491,-0.29135,0.58118,0.21869,0.7276
1745186082.062217,9.51,-0.12,2.476,-6.427,-76.278,-128.381,-0.31033,0.57428,0.22861,0.72214
1745186082.0632126,9.481,-0.168,2.476,-6.487,-76.273,-128.271,-0.31033,0.57428,0.22861,0.72214
1745186082.0632126,9.481,-0.168,2.476,-6.531,-76.267,-128.161,-0.31033,0.57428,0.22861,0.72214
1745186082.0642087,9.515,-0.172,2.466,-6.592,-76.256,-128.046,-0.31033,0.57428,0.22861,0.72214
1745186082.0772088,9.515,-0.172,2.466,-6.663,-76.245,-127.93,-0.31033,0.57428,0.22861,0.72214
1745186082.0782099,9.448,-0.311,2.504,-6.707,-76.212,-127.837,-0.31033,0.57428,0.22861,0.72214
1745186082.0792096,9.448,-0.311,2.504,-6.757,-76.179,-127.749,-0.31033,0.57428,0.22861,0.72214
1745186082.0792096,9.457,-0.369,2.552,-6.806,-76.157,-127.634,-0.31033,0.57428,0.22861,0.72214
1745186082.1373837,9.457,-0.369,2.552,-6.866,-76.135,-127.513,-0.31033,0.57428,0.22861,0.72214
1745186082.234761,9.51,-0.35,2.404,-6.921,-76.108,-127.381,-0.31033,0.57428,0.22861,0.72214
1745186082.234761,9.51,-0.35,2.404,-6.976,-76.08,-127.249,-0.31033,0.57428,0.22861,0.72214
1745186082.23576,9.534,-0.522,2.394,-7.026,-76.053,-127.123,-0.31033,0.57428,0.22861,0.72214
1745186082.2367635,9.534,-0.522,2.394,-7.075,-76.025,-126.996,-0.31033,0.57428,0.22861,0.72214
1745186082.2377634,9.51,-0.541,2.385,-7.048,-76.009,-126.936,-0.31033,0.57428,0.22861,0.72214
1745186082.3016503,9.51,-0.541,2.385,-7.031,-75.998,-126.87,-0.31033,0.57428,0.22861,0.72214
1745186082.3026524,9.572,-0.393,2.413,-6.976,-75.992,-126.843,-0.31033,0.57428,0.22861,0.72214
1745186082.3036463,9.572,-0.393,2.413,-6.927,-75.981,-126.81,-0.31033,0.57428,0.22861,0.72214
1745186082.3036463,9.553,-0.373,2.437,-6.817,-75.965,-126.865,-0.31033,0.57428,0.22861,0.72214
1745186082.3046446,9.553,-0.373,2.437,-6.707,-75.948,-126.92,-0.31912,0.57043,0.23282,0.72003
1745186082.3046446,9.543,-0.259,2.375,-6.619,-75.927,-126.942,-0.31912,0.57043,0.23282,0.72003
1745186082.305645,9.543,-0.259,2.375,-6.531,-75.91,-126.964,-0.31912,0.57043,0.23282,0.72003
1745186082.305645,9.572,-0.153,2.389,-6.416,-75.866,-127.04,-0.31912,0.57043,0.23282,0.72003
1745186082.3066447,9.572,-0.153,2.389,-6.295,-75.828,-127.112,-0.31912,0.57043,0.23282,0.72003
1745186082.3066447,9.534,-0.153,2.394,-6.169,-75.789,-127.183,-0.31912,0.57043,0.23282,0.72003
1745186082.3076437,9.534,-0.153,2.394,-6.037,-75.751,-127.249,-0.31912,0.57043,0.23282,0.72003
1745186082.3076437,9.481,-0.057,2.456,-5.977,-75.751,-127.238,-0.31912,0.57043,0.23282,0.72003
1745186082.3076437,9.481,-0.057,2.456,-5.911,-75.751,-127.227,-0.31912,0.57043,0.23282,0.72003
1745186082.308644,9.409,-0.043,2.533,-5.867,-75.74,-127.183,-0.31912,0.57043,0.23282,0.72003
1745186082.3216562,9.409,-0.043,2.533,-5.823,-75.734,-127.145,-0.31912,0.57043,0.23282,0.72003
1745186082.3226483,9.333,-0.024,2.61,-5.79,-75.734,-127.123,-0.31912,0.57043,0.23282,0.72003
1745186082.3236477,9.333,-0.024,2.61,-5.757,-75.734,-127.095,-0.31912,0.57043,0.23282,0.72003
1745186082.3246486,9.361,-0.005,2.686,-5.735,-75.745,-127.051,-0.31912,0.57043,0.23282,0.72003
1745186082.3769443,9.361,-0.005,2.686,-5.718,-75.762,-127.007,-0.31912,0.57043,0.23282,0.72003
1745186082.4750533,9.5,-0.091,2.452,-5.735,-75.756,-126.903,-0.31912,0.57043,0.23282,0.72003
1745186082.4760466,9.5,-0.091,2.452,-5.746,-75.751,-126.799,-0.31912,0.57043,0.23282,0.72003
1745186082.4760466,9.376,-0.005,2.504,-5.74,-75.745,-126.788,-0.31912,0.57043,0.23282,0.72003
1745186082.4760466,9.376,-0.005,2.504,-5.729,-75.734,-126.777,-0.31912,0.57043,0.23282,0.72003
1745186082.4770458,9.222,0.096,2.682,-5.746,-75.696,-126.749,-0.31912,0.57043,0.23282,0.72003
1745186082.5565646,9.222,0.096,2.682,-5.762,-75.652,-126.722,-0.31912,0.57043,0.23282,0.72003
1745186082.5572054,9.237,-0.024,2.71,-5.861,-75.602,-126.562,-0.31912,0.57043,0.23282,0.72003
1745186082.5582128,9.237,-0.024,2.71,-5.96,-75.547,-126.414,-0.31912,0.57043,0.23282,0.72003
1745186082.5582128,9.309,-0.134,2.691,-5.966,-75.454,-126.365,-0.31912,0.57043,0.23282,0.72003
1745186082.5582128,9.309,-0.134,2.691,-5.971,-75.355,-126.315,-0.31912,0.57043,0.23282,0.72003
1745186082.5592117,9.199,-0.177,2.705,-5.982,-75.267,-126.161,-0.31912,0.57043,0.23282,0.72003
1745186082.5592117,9.199,-0.177,2.705,-5.999,-75.174,-126.002,-0.31912,0.57043,0.23282,0.72003
1745186082.5602129,9.385,-0.33,2.619,-6.015,-75.141,-125.87,-0.31912,0.57043,0.23282,0.72003
1745186082.5602129,9.385,-0.33,2.619,-6.031,-75.114,-125.744,-0.31912,0.57043,0.23282,0.72003
1745186082.5602129,9.323,-0.321,2.619,-5.96,-75.053,-125.744,-0.31912,0.57043,0.23282,0.72003
1745186082.561211,9.323,-0.321,2.619,-5.894,-74.998,-125.744,-0.31912,0.57043,0.23282,0.72003
1745186082.561211,9.495,-0.235,2.586,-5.652,-74.965,-125.92,-0.31912,0.57043,0.23282,0.72003
1745186082.561211,9.495,-0.235,2.586,-5.416,-74.932,-126.096,-0.31912,0.57043,0.23282,0.72003
1745186082.5622132,9.376,-0.005,2.605,-5.301,-74.894,-126.123,-0.31912,0.57043,0.23282,0.72003
1745186082.5622132,9.376,-0.005,2.605,-5.186,-74.855,-126.156,-0.31912,0.57043,0.23282,0.72003
1745186082.5622132,9.424,-0.072,2.495,-4.971,-74.877,-126.216,-0.31912,0.57043,0.23282,0.72003
1745186082.5632107,9.424,-0.072,2.495,-4.752,-74.905,-126.271,-0.31912,0.57043,0.23282,0.72003
1745186082.5632107,9.414,0.23,2.658,-4.653,-74.921,-126.282,-0.31912,0.57043,0.23282,0.72003
1745186082.617816,9.414,0.23,2.658,-4.554,-74.932,-126.299,-0.31912,0.57043,0.23282,0.72003
1745186082.6922147,9.376,0.086,2.72,-4.488,-74.949,-126.233,-0.31912,0.57043,0.23282,0.72003
1745186082.6932135,9.376,0.086,2.72,-4.422,-74.965,-126.167,-0.31912,0.57043,0.23282,0.72003
1745186082.694215,9.189,-0.096,2.844,-4.274,-74.993,-126.227,-0.31912,0.57043,0.23282,0.72003
1745186082.6952136,9.189,-0.096,2.844,-4.125,-75.02,-126.288,-0.31912,0.57043,0.23282,0.72003
1745186082.6962159,9.232,0.134,2.763,-3.988,-75.048,-126.376,-0.31912,0.57043,0.23282,0.72003
1745186082.6972046,9.232,0.134,2.763,-3.851,-75.075,-126.469,-0.33853,0.55569,0.25015,0.71686
1745186082.6982079,9.112,0.259,2.734,-3.79,-75.086,-126.403,-0.33853,0.55569,0.25015,0.71686
1745186082.699208,9.112,0.259,2.734,-3.73,-75.092,-126.337,-0.33853,0.55569,0.25015,0.71686
1745186082.7004375,9.27,-0.168,2.538,-3.878,-75.13,-126.041,-0.33853,0.55569,0.25015,0.71686
1745186082.7004375,9.27,-0.168,2.538,-4.032,-75.163,-125.744,-0.33853,0.55569,0.25015,0.71686
1745186082.701439,8.993,-0.283,2.653,-4.07,-75.179,-125.574,-0.33853,0.55569,0.25015,0.71686
1745186082.737358,8.993,-0.283,2.653,-4.109,-75.196,-125.403,-0.33853,0.55569,0.25015,0.71686
1745186082.8477306,8.648,-0.067,2.902,-4.175,-75.234,-125.206,-0.33853,0.55569,0.25015,0.71686
1745186083.0965724,8.648,-0.067,2.902,-4.241,-75.278,-125.002,-0.33853,0.55569,0.25015,0.71686
1745186083.1791296,8.495,0.091,2.902,-4.169,-75.355,-124.931,-0.33853,0.55569,0.25015,0.71686
1745186083.1803372,8.495,0.091,2.902,-4.092,-75.427,-124.86,-0.33853,0.55569,0.25015,0.71686
1745186083.1813402,8.322,0.263,2.83,-4.01,-75.498,-124.865,-0.33853,0.55569,0.25015,0.71686
1745186083.1813402,8.322,0.263,2.83,-3.928,-75.569,-124.871,-0.33853,0.55569,0.25015,0.71686
1745186083.1823382,8.03,0.508,2.825,-3.867,-75.575,-124.838,-0.33853,0.55569,0.25015,0.71686
1745186083.1823382,8.03,0.508,2.825,-3.807,-75.58,-124.805,-0.33853,0.55569,0.25015,0.71686
1745186083.1823382,8.337,0.22,2.423,-3.741,-75.536,-124.783,-0.33853,0.55569,0.25015,0.71686
1745186083.1833384,8.337,0.22,2.423,-3.68,-75.498,-124.761,-0.33853,0.55569,0.25015,0.71686
1745186083.1833384,8.246,-0.115,2.342,-3.724,-75.46,-124.618,-0.33853,0.55569,0.25015,0.71686
1745186083.1843379,8.246,-0.115,2.342,-3.768,-75.421,-124.475,-0.33853,0.55569,0.25015,0.71686
1745186083.1843379,8.155,-0.148,2.322,-3.708,-75.344,-124.437,-0.33853,0.55569,0.25015,0.71686
1745186083.185339,8.155,-0.148,2.322,-3.653,-75.273,-124.398,-0.33853,0.55569,0.25015,0.71686
1745186083.1863406,7.877,-0.014,2.523,-3.499,-75.344,-124.607,-0.33853,0.55569,0.25015,0.71686
1745186083.1863406,7.877,-0.014,2.523,-3.345,-75.41,-124.81,-0.33853,0.55569,0.25015,0.71686
1745186083.1873379,7.695,0.259,3.012,-3.142,-75.536,-125.068,-0.33853,0.55569,0.25015,0.71686
1745186083.1873379,7.695,0.259,3.012,-2.933,-75.657,-125.332,-0.33853,0.55569,0.25015,0.71686
1745186083.1883402,7.781,0.891,3.194,-2.845,-75.668,-125.349,-0.33853,0.55569,0.25015,0.71686
1745186083.1883402,7.781,0.891,3.194,-2.747,-75.679,-125.376,-0.33853,0.55569,0.25015,0.71686
1745186083.1893384,7.92,0.594,2.801,-2.763,-75.646,-125.162,-0.33853,0.55569,0.25015,0.71686
1745186083.1893384,7.92,0.594,2.801,-2.774,-75.608,-124.958,-0.33853,0.55569,0.25015,0.71686
1745186083.1893384,8.14,-0.163,2.749,-2.686,-75.69,-124.882,-0.33853,0.55569,0.25015,0.71686
1745186083.1903405,8.14,-0.163,2.749,-2.615,-75.773,-124.799,-0.33853,0.55569,0.25015,0.71686
1745186083.1903405,8.571,-0.828,2.236,-2.34,-75.948,-125.019,-0.33853,0.55569,0.25015,0.71686
1745186083.1903405,8.571,-0.828,2.236,-2.082,-76.124,-125.233,-0.33853,0.55569,0.25015,0.71686
1745186083.1913385,8.246,-0.278,1.867,-1.351,-76.421,-125.98,-0.33853,0.55569,0.25015,0.71686
1745186083.1913385,8.246,-0.278,1.867,-0.593,-76.718,-126.755,-0.33853,0.55569,0.25015,0.71686
1745186083.1923392,7.063,1.25,2.428,0.357,-77.201,-127.826,-0.33853,0.55569,0.25015,0.71686
1745186083.1923392,7.063,1.25,2.428,1.406,-77.673,-128.99,-0.33853,0.55569,0.25015,0.71686
1745186083.1933403,7.235,2.634,2.677,3.071,-78.113,-130.71,-0.33853,0.55569,0.25015,0.71686
1745186083.1933403,7.235,2.634,2.677,4.889,-78.53,-132.583,-0.33853,0.55569,0.25015,0.71686
1745186083.1943395,8.595,3.036,1.863,6.498,-78.772,-134.236,-0.33853,0.55569,0.25015,0.71686
1745186083.1943395,8.595,3.036,1.863,8.212,-79.003,-135.989,-0.33853,0.55569,0.25015,0.71686
1745186083.19534,8.399,1.776,1.341,8.954,-79.085,-136.774,-0.33853,0.55569,0.25015,0.71686
1745186083.19534,8.399,1.776,1.341,9.723,-79.173,-137.587,-0.33853,0.55569,0.25015,0.71686
1745186083.196342,8.303,0.192,1.336,10.767,-79.327,-138.713,-0.33853,0.55569,0.25015,0.71686
1745186083.196342,8.303,0.192,1.336,11.821,-79.481,-139.861,-0.33853,0.55569,0.25015,0.71686
1745186083.196342,8.313,1.058,1.101,13.76,-79.799,-141.85,-0.33853,0.55569,0.25015,0.71686
1745186083.1973417,8.313,1.058,1.101,15.82,-80.107,-143.959,-0.33853,0.55569,0.25015,0.71686
1745186083.2617674,7.748,2.356,1.791,18.995,-80.546,-147.085,-0.33853,0.55569,0.25015,0.71686
1745186083.2617674,7.748,2.356,1.791,22.467,-80.947,-150.507,-0.33853,0.55569,0.25015,0.71686
1745186083.2627697,8.073,3.05,2.332,26.373,-81.403,-154.55,-0.33853,0.55569,0.25015,0.71686
1745186083.2627697,8.241,3.883,1.484,30.405,-81.804,-158.73,-0.33853,0.55569,0.25015,0.71686
1745186083.2627697,8.241,3.883,1.484,34.53,-82.15,-163.026,-0.33853,0.55569,0.25015,0.71686
1745186083.2637703,8.418,4.075,0.776,38.397,-82.408,-167.047,-0.33853,0.55569,0.25015,0.71686
1745186083.2637703,8.418,4.075,0.776,41.874,-82.595,-170.684,-0.33853,0.55569,0.25015,0.71686
1745186083.273774,8.509,2.978,0.488,45.335,-82.738,-174.37,-0.33853,0.55569,0.25015,0.71686
1745186083.2747726,8.509,2.978,0.488,48.708,-82.842,-178.055,-0.33853,0.55569,0.25015,0.71686
1745186083.2757714,9.438,3.175,0.091,53.174,-83.002,177.188,-0.33853,0.55569,0.25015,0.71686
1745186083.2757714,9.438,3.175,0.091,58.92,-83.194,171.189,-0.33853,0.55569,0.25015,0.71686
1745186083.2767713,9.572,3.5,-0.129,65.38,-83.353,164.432,-0.33853,0.55569,0.25015,0.71686
1745186083.2777674,9.572,3.5,-0.129,72.559,-83.452,156.929,-0.33853,0.55569,0.25015,0.71686
1745186083.2777674,9.179,3.658,-0.316,79.75,-83.414,149.392,-0.33853,0.55569,0.25015,0.71686
1745186083.278767,9.179,3.658,-0.316,86.605,-83.232,142.18,-0.33853,0.55569,0.25015,0.71686
1745186083.279767,8.418,5.018,-0.517,93.021,-82.864,135.428,-0.33853,0.55569,0.25015,0.71686
1745186083.2807693,8.418,5.018,-0.517,98.646,-82.31,129.496,-0.33853,0.55569,0.25015,0.71686
1745186083.2807693,10.281,4.65,-2.231,103.359,-81.843,124.497,-0.33853,0.55569,0.25015,0.71686
1745186083.2817678,10.281,4.65,-2.231,107.562,-81.475,120.037,-0.33853,0.55569,0.25015,0.71686
1745186083.3077693,11.444,2.921,-2.959,111.313,-81.183,115.988,-0.33853,0.55569,0.25015,0.71686
1745186083.3924758,11.444,2.921,-2.959,114.802,-80.969,112.165,-0.33853,0.55569,0.25015,0.71686
1745186083.3924758,11.439,2.294,-3.256,118.372,-80.568,108.232,-0.33853,0.55569,0.25015,0.71686
1745186083.3934722,11.439,2.294,-3.256,121.816,-79.969,104.392,-0.33853,0.55569,0.25015,0.71686
1745186083.3934722,10.946,3.658,-3.745,125.217,-79.178,100.541,-0.33853,0.55569,0.25015,0.71686
1745186083.3944714,10.946,3.658,-3.745,128.381,-78.179,96.866,-0.33853,0.55569,0.25015,0.71686
1745186083.3944714,10.185,4.908,-4.233,131.385,-77.157,93.34,-0.2005,0.66895,0.34064,0.62943
1745186083.3954766,10.185,4.908,-4.233,134.247,-76.108,89.967,-0.2005,0.66895,0.34064,0.62943
1745186083.428691,9.519,5.143,-4.463,136.588,-75.207,87.045,-0.2005,0.66895,0.34064,0.62943
1745186083.545471,9.519,5.143,-4.463,138.576,-74.465,84.402,-0.2005,0.66895,0.34064,0.62943
1745186083.5944717,11.109,3.735,-5.717,140.07,-73.916,82.211,-0.2005,0.66895,0.34064,0.62943
1745186083.5954723,11.109,3.735,-5.717,141.207,-73.564,80.321,-0.2005,0.66895,0.34064,0.62943
1745186083.5954723,12.517,1.092,-5.66,142.388,-73.367,78.393,-0.2005,0.66895,0.34064,0.62943
1745186083.5964708,50.068,4.367,-22.649,143.723,-73.317,76.273,-0.2005,0.66895,0.34064,0.62943
1745186083.5974708,12.455,0.326,-5.483,145.283,-73.147,73.883,-0.2005,0.66895,0.34064,0.62943
1745186083.5974708,12.455,0.326,-5.483,146.926,-72.861,71.433,-0.2005,0.66895,0.34064,0.62943
1745186083.5974708,11.578,1.599,-5.43,148.271,-72.411,69.241,-0.2005,0.66895,0.34064,0.62943
1745186083.5984693,11.578,1.599,-5.43,149.288,-71.807,67.346,-0.2005,0.66895,0.34064,0.62943
1745186083.5984693,9.998,3.079,-5.578,150.134,-71.208,65.764,-0.2005,0.66895,0.34064,0.62943
1745186083.5994718,9.998,3.079,-5.578,150.831,-70.615,64.484,-0.2005,0.66895,0.34064,0.62943
1745186083.5994718,11.037,2.758,-5.837,151.804,-70.219,62.814,-0.2005,0.66895,0.34064,0.62943
1745186083.6004708,11.037,2.758,-5.837,153.078,-70.016,60.727,-0.2005,0.66895,0.34064,0.62943
1745186083.6004708,12.953,0.072,-6.431,154.484,-69.972,58.458,-0.2005,0.66895,0.34064,0.62943
1745186083.6004708,12.953,0.072,-6.431,156.088,-70.071,55.953,-0.2005,0.66895,0.34064,0.62943
1745186083.6014714,13.36,-0.9,-6.316,157.308,-70.087,53.8,-0.2005,0.66895,0.34064,0.62943
1745186083.6014714,13.36,-0.9,-6.316,158.132,-70.021,52.015,-0.2005,0.66895,0.34064,0.62943
1745186083.602471,12.9,-0.22,-5.923,158.708,-69.922,50.576,-0.2005,0.66895,0.34064,0.62943
1745186083.602471,12.9,-0.22,-5.923,159.038,-69.791,49.488,-0.2005,0.66895,0.34064,0.62943
1745186083.6104727,12.522,0.685,-6.009,159.357,-69.725,48.587,-0.2005,0.66895,0.34064,0.62943
1745186083.6104727,12.522,0.685,-6.009,159.664,-69.725,47.867,-0.2005,0.66895,0.34064,0.62943
1745186083.6114724,12.526,0.603,-5.765,159.813,-69.741,47.422,-0.2005,0.66895,0.34064,0.62943
1745186083.6124723,12.526,0.603,-5.765,159.802,-69.785,47.247,-0.2005,0.66895,0.34064,0.62943
1745186083.6686933,13.288,0.335,-5.88,159.725,-69.873,47.164,-0.2005,0.66895,0.34064,0.62943
1745186083.755166,13.288,0.335,-5.88,159.571,-70.016,47.175,-0.2005,0.66895,0.34064,0.62943
1745186083.755166,13.733,-0.105,-5.416,159.335,-70.137,47.148,-0.2005,0.66895,0.34064,0.62943
1745186083.756166,13.733,-0.105,-5.416,159.005,-70.252,47.082,-0.2005,0.66895,0.34064,0.62943
1745186083.756166,13.058,-0.158,-5.128,158.538,-70.367,47.148,-0.2005,0.66895,0.34064,0.62943
1745186083.756166,13.058,-0.158,-5.128,157.945,-70.477,47.351,-0.2005,0.66895,0.34064,0.62943
1745186083.7571661,12.158,0.426,-5.042,157.396,-70.67,47.505,-0.2005,0.66895,0.34064,0.62943
1745186083.7571661,12.158,0.426,-5.042,156.89,-70.939,47.626,-0.2005,0.66895,0.34064,0.62943
1745186083.758166,11.645,1.001,-5.052,156.725,-71.263,47.455,-0.2005,0.66895,0.34064,0.62943
1745186083.758166,11.645,1.001,-5.052,156.918,-71.642,46.989,-0.07968,0.7756,0.21103,0.58945
1745186083.758166,12.0,0.259,-4.683,157.297,-72.098,46.412,-0.07968,0.7756,0.21103,0.58945
1745186083.7591658,12.0,0.259,-4.683,157.885,-72.631,45.698,-0.07968,0.7756,0.21103,0.58945
1745186083.7591658,11.698,-0.01,-4.228,158.45,-73.065,45.0,-0.07968,0.7756,0.21103,0.58945
1745186083.7601657,11.698,-0.01,-4.228,158.989,-73.405,44.33,-0.07968,0.7756,0.21103,0.58945
1745186083.7601657,11.147,0.048,-4.147,159.428,-73.762,43.66,-0.07968,0.7756,0.21103,0.58945
1745186083.7611659,11.147,0.048,-4.147,159.769,-74.136,42.995,-0.07968,0.7756,0.21103,0.58945
1745186083.8181655,10.956,-0.096,-3.97,159.851,-74.658,42.599,-0.07968,0.7756,0.21103,0.58945
1745186083.9217956,10.956,-0.096,-3.97,159.653,-75.333,42.484,-0.07968,0.7756,0.21103,0.58945
1745186083.9730146,10.625,-0.383,-3.515,158.577,-76.042,43.099,-0.07968,0.7756,0.21103,0.58945
1745186083.9740179,10.625,-0.383,-3.515,156.495,-76.772,44.577,-0.07968,0.7756,0.21103,0.58945
1745186083.9760187,9.969,-0.967,-2.605,154.017,-77.344,46.472,-0.07968,0.7756,0.21103,0.58945
1745186083.9770174,9.969,-0.967,-2.605,151.161,-77.75,48.757,-0.07968,0.7756,0.21103,0.58945
1745186083.9780166,9.663,-0.503,-2.361,149.332,-78.245,50.202,-0.07968,0.7756,0.21103,0.58945
1745186083.9780166,9.663,-0.503,-2.361,148.596,-78.854,50.746,-0.07968,0.7756,0.21103,0.58945
1745186083.9790168,9.519,0.302,-2.48,148.134,-79.475,51.064,-0.07968,0.7756,0.21103,0.58945
1745186083.9800172,9.519,0.302,-2.48,147.975,-80.118,51.119,-0.07968,0.7756,0.21103,0.58945
1745186083.9810188,9.969,-0.546,-1.949,147.843,-80.64,51.141,-0.07968,0.7756,0.21103,0.58945
1745186083.9820187,9.969,-0.546,-1.949,147.75,-81.046,51.125,-0.07968,0.7756,0.21103,0.58945
1745186083.9830213,10.238,-1.188,-1.705,148.321,-81.304,50.532,-0.07968,0.7756,0.21103,0.58945
1745186083.9840233,10.238,-1.188,-1.705,149.573,-81.42,49.334,-0.07968,0.7756,0.21103,0.58945
1745186083.9840233,10.836,-1.58,-1.92,150.881,-81.645,48.181,-0.07968,0.7756,0.21103,0.58945
1745186083.9850187,10.836,-1.58,-1.92,152.292,-81.969,47.0,-0.07968,0.7756,0.21103,0.58945
1745186083.9860237,11.095,-2.246,-1.154,153.369,-82.293,46.126,-0.07968,0.7756,0.21103,0.58945
1745186083.9870217,11.095,-2.246,-1.154,154.061,-82.606,45.588,-0.07968,0.7756,0.21103,0.58945
1745186083.9880226,10.999,-2.016,-1.901,153.984,-82.963,45.67,-0.07968,0.7756,0.21103,0.58945
1745186083.9890218,10.999,-2.016,-1.901,153.04,-83.348,46.467,-0.07968,0.7756,0.21103,0.58945
1745186083.9990237,10.597,-1.939,-2.27,151.859,-83.908,47.505,-0.07968,0.7756,0.21103,0.58945
1745186084.000021,10.597,-1.939,-2.27,150.271,-84.628,48.955,-0.07968,0.7756,0.21103,0.58945
1745186084.0010295,9.606,-1.168,-2.476,148.854,-85.325,50.208,-0.07968,0.7756,0.21103,0.58945
1745186084.002025,9.606,-1.168,-2.476,147.7,-86.001,51.163,-0.07968,0.7756,0.21103,0.58945
1745186084.0280333,9.194,-0.077,-3.026,147.711,-86.66,50.944,-0.07968,0.7756,0.21103,0.58945
1745186084.1514373,9.194,-0.077,-3.026,149.689,-87.303,48.741,-0.07968,0.7756,0.21103,0.58945
1745186084.219276,10.118,-1.427,-2.504,153.896,-87.962,44.198,-0.07968,0.7756,0.21103,0.58945
1745186084.2202888,10.118,-1.427,-2.504,163.718,-88.61,33.931,-0.07968,0.7756,0.21103,0.58945
1745186084.2209198,9.567,-2.437,-1.676,-173.101,-89.116,10.525,-0.07968,0.7756,0.21103,0.58945
1745186084.2209198,9.567,-2.437,-1.676,-127.441,-89.258,-35.14,-0.10855,0.70325,0.10559,0.69455
1745186084.221933,8.782,-1.159,-1.834,-90.829,-88.962,-71.559,-0.10855,0.70325,0.10559,0.69455
1745186084.221933,8.782,-1.159,-1.834,-73.482,-88.478,-88.522,-0.10855,0.70325,0.10559,0.69455
1745186084.222933,9.543,-1.585,-1.288,-63.358,-87.94,-98.289,-0.10855,0.70325,0.10559,0.69455
1745186084.222933,9.543,-1.585,-1.288,-56.332,-87.369,-104.98,-0.10855,0.70325,0.10559,0.69455
1745186084.222933,9.361,-2.758,-0.278,-51.097,-86.754,-109.775,-0.10855,0.70325,0.10559,0.69455
1745186084.2239335,9.361,-2.758,-0.278,-46.912,-86.094,-113.412,-0.10855,0.70325,0.10559,0.69455
1745186084.2239335,9.28,-2.533,-0.402,-44.61,-85.523,-115.12,-0.10855,0.70325,0.10559,0.69455
1745186084.2239335,9.28,-2.533,-0.402,-43.401,-85.04,-115.675,-0.10855,0.70325,0.10559,0.69455
1745186084.2249315,8.878,-2.093,-0.244,-43.401,-84.688,-115.142,-0.10855,0.70325,0.10559,0.69455
1745186084.2249315,8.878,-2.093,-0.244,-44.379,-84.463,-113.736,-0.10855,0.70325,0.10559,0.69455
1745186084.2259314,9.012,-3.247,-0.01,-44.61,-84.21,-113.159,-0.10855,0.70325,0.10559,0.69455
1745186084.2259314,9.012,-3.247,-0.01,-44.203,-83.93,-113.297,-0.10855,0.70325,0.10559,0.69455
1745186084.2259314,9.395,-3.275,-0.225,-42.484,-83.518,-114.582,-0.10855,0.70325,0.10559,0.69455
1745186084.226931,9.395,-3.275,-0.225,-39.754,-82.963,-116.702,-0.10855,0.70325,0.10559,0.69455
1745186084.2379308,8.667,-2.911,0.144,-37.068,-82.397,-118.762,-0.10855,0.70325,0.10559,0.69455
1745186084.2389305,8.667,-2.911,0.144,-34.415,-81.821,-120.778,-0.10855,0.70325,0.10559,0.69455
1745186084.2399302,8.715,-3.548,0.297,-31.196,-80.947,-123.201,-0.10855,0.70325,0.10559,0.69455
1745186084.2409303,8.715,-3.548,0.297,-28.51,-80.052,-125.096,-0.10855,0.70325,0.10559,0.69455
1745186084.2679312,8.959,-4.046,0.661,-25.686,-79.233,-127.051,-0.10855,0.70325,0.10559,0.69455
1745186084.3925061,8.959,-4.046,0.661,-23.231,-78.398,-128.644,-0.10855,0.70325,0.10559,0.69455
1745186084.4667256,8.734,-3.85,1.216,-20.836,-77.893,-130.139,-0.10855,0.70325,0.10559,0.69455
1745186084.4667256,8.734,-3.85,1.216,-18.611,-77.371,-131.462,-0.10855,0.70325,0.10559,0.69455
1745186084.467725,8.638,-3.797,0.972,-16.117,-77.031,-133.088,-0.10855,0.70325,0.10559,0.69455
1745186084.4687233,8.638,-3.797,0.972,-13.76,-76.668,-134.588,-0.10855,0.70325,0.10559,0.69455
1745186084.4687233,7.824,-3.021,1.001,-11.415,-76.256,-136.143,-0.10855,0.70325,0.10559,0.69455
1745186084.4697244,7.824,-3.021,1.001,-9.196,-75.828,-137.565,-0.10855,0.70325,0.10559,0.69455
1745186084.4697244,7.805,-2.533,1.159,-7.262,-75.333,-138.615,-0.10855,0.70325,0.10559,0.69455
1745186084.470724,7.805,-2.533,1.159,-5.433,-74.828,-139.559,-0.10855,0.70325,0.10559,0.69455
1745186084.4717247,7.863,-2.423,1.197,-3.06,-74.366,-141.103,-0.10855,0.70325,0.10559,0.69455
1745186084.4717247,7.863,-2.423,1.197,-0.813,-73.883,-142.531,-0.10855,0.70325,0.10559,0.69455
1745186084.4727228,6.139,-1.006,1.547,1.379,-73.367,-143.915,-0.10855,0.70325,0.10559,0.69455
1745186084.4727228,6.139,-1.006,1.547,3.466,-72.839,-145.201,-0.10855,0.70325,0.10559,0.69455
1745186084.4727228,5.88,-0.455,1.796,5.229,-72.328,-146.069,-0.10855,0.70325,0.10559,0.69455
1745186084.4737256,5.88,-0.455,1.796,6.927,-71.807,-146.865,-0.10855,0.70325,0.10559,0.69455
1745186084.4737256,5.957,-0.445,2.284,8.591,-71.323,-147.579,-0.10855,0.70325,0.10559,0.69455
1745186084.474723,5.957,-0.445,2.284,10.195,-70.823,-148.239,-0.10855,0.70325,0.10559,0.69455
1745186084.474723,5.799,0.12,3.093,11.81,-70.345,-148.903,-0.10855,0.70325,0.10559,0.69455
1745186084.475723,2.897,0.057,1.547,13.376,-69.862,-149.518,-0.10855,0.70325,0.10559,0.69455
1745186084.4867227,5.009,1.365,2.729,14.974,-69.494,-150.205,-0.10855,0.70325,0.10559,0.69455
1745186084.4867227,5.009,1.365,2.729,16.545,-69.109,-150.859,-0.10855,0.70325,0.10559,0.69455
1745186084.4877245,4.822,2.203,2.088,18.1,-68.857,-151.496,-0.10855,0.70325,0.10559,0.69455
1745186084.4877245,4.822,2.203,2.088,19.655,-68.588,-152.133,-0.10855,0.70325,0.10559,0.69455
1745186084.508724,4.18,3.28,2.385,20.682,-68.373,-152.172,-0.10855,0.70325,0.10559,0.69455
1745186084.5916028,4.18,3.28,2.385,21.736,-68.148,-152.227,-0.10855,0.70325,0.10559,0.69455
1745186084.5916028,5.401,3.084,2.734,22.225,-68.071,-151.628,-0.10855,0.70325,0.10559,0.69455
1745186084.5916028,5.401,3.084,2.734,22.747,-67.983,-151.046,-0.10855,0.70325,0.10559,0.69455
1745186084.592603,6.464,2.346,2.6,23.621,-68.027,-151.04,-0.10855,0.70325,0.10559,0.69455
1745186084.592603,6.464,2.346,2.6,24.505,-68.071,-151.04,-0.31369,0.48773,0.30115,0.7569
1745186084.5936036,5.646,2.452,2.504,25.472,-68.165,-151.282,-0.31369,0.48773,0.30115,0.7569
1745186084.5936036,5.646,2.452,2.504,26.461,-68.253,-151.534,-0.31369,0.48773,0.30115,0.7569
1745186084.6026,6.211,2.423,1.207,27.301,-68.401,-151.458,-0.31369,0.48773,0.30115,0.7569
1745186084.6026,6.211,2.423,1.207,28.163,-68.549,-151.397,-0.31369,0.48773,0.30115,0.7569
1745186084.6036034,7.307,2.394,1.326,29.301,-68.703,-151.43,-0.31369,0.48773,0.30115,0.7569
1745186084.6036034,7.307,2.394,1.326,30.443,-68.862,-151.479,-0.31369,0.48773,0.30115,0.7569
1745186084.6277993,8.514,3.007,1.537,31.816,-68.923,-151.804,-0.31369,0.48773,0.30115,0.7569
1745186084.7336652,8.514,3.007,1.537,33.201,-68.983,-152.144,-0.31369,0.48773,0.30115,0.7569
1745186084.7996595,7.671,3.941,1.829,34.662,-69.005,-153.04,-0.31369,0.48773,0.30115,0.7569
1745186084.7996595,7.671,3.941,1.829,36.14,-69.022,-153.951,-0.31369,0.48773,0.30115,0.7569
1745186084.8006618,6.23,4.19,1.149,37.425,-69.109,-154.66,-0.31369,0.48773,0.30115,0.7569
1745186084.8006618,6.23,4.19,1.149,38.732,-69.186,-155.385,-0.31369,0.48773,0.30115,0.7569
1745186084.8006618,5.31,4.764,1.015,39.694,-69.395,-155.649,-0.31369,0.48773,0.30115,0.7569
1745186084.8016622,5.31,4.764,1.015,40.688,-69.593,-155.94,-0.31369,0.48773,0.30115,0.7569
1745186084.8016622,7.068,4.884,1.551,41.391,-69.846,-155.891,-0.31369,0.48773,0.30115,0.7569
1745186084.802659,7.068,4.884,1.551,42.111,-70.087,-155.858,-0.31369,0.48773,0.30115,0.7569
1745186084.802659,7.982,4.688,2.107,42.836,-70.236,-155.995,-0.31369,0.48773,0.30115,0.7569
1745186084.802659,7.982,4.688,2.107,43.566,-70.378,-156.138,-0.31369,0.48773,0.30115,0.7569
1745186084.8036606,7.858,3.907,2.614,44.681,-70.433,-156.627,-0.31369,0.48773,0.30115,0.7569
1745186084.8036606,7.858,3.907,2.614,45.78,-70.477,-157.104,-0.31369,0.48773,0.30115,0.7569
1745186084.8046608,6.881,4.113,2.045,46.895,-70.466,-157.687,-0.31369,0.48773,0.30115,0.7569
1745186084.8056614,6.881,4.113,2.045,48.01,-70.455,-158.258,-0.31369,0.48773,0.30115,0.7569
1745186084.8378437,6.153,4.377,1.101,49.285,-70.51,-158.972,-0.31369,0.48773,0.30115,0.7569
1745186084.905843,6.153,4.377,1.101,50.57,-70.565,-159.692,-0.31369,0.48773,0.30115,0.7569
1745186084.9068408,7.791,5.784,0.857,52.103,-70.703,-160.637,-0.31369,0.48773,0.30115,0.7569
1745186084.9068408,7.791,5.784,0.857,53.668,-70.834,-161.603,-0.31369,0.48773,0.30115,0.7569
1745186084.9078438,8.255,6.163,0.915,54.976,-70.939,-162.499,-0.31369,0.48773,0.30115,0.7569
1745186084.9078438,8.255,6.163,0.915,56.299,-71.038,-163.416,-0.31369,0.48773,0.30115,0.7569
1745186084.9088385,8.327,5.387,-0.11,57.706,-71.235,-164.559,-0.31369,0.48773,0.30115,0.7569
1745186084.9098392,8.327,5.387,-0.11,59.156,-71.428,-165.74,-0.31369,0.48773,0.30115,0.7569
1745186084.9098392,8.274,4.314,0.163,60.183,-71.57,-166.575,-0.31369,0.48773,0.30115,0.7569
1745186084.9098392,8.274,4.314,0.163,61.232,-71.713,-167.432,-0.31369,0.48773,0.30115,0.7569
1745186084.9108381,7.604,5.2,1.317,61.875,-71.856,-167.871,-0.37283,0.4559,0.46542,0.66061
1745186084.9108381,7.604,5.2,1.317,62.523,-71.999,-168.305,-0.37283,0.4559,0.46542,0.66061
1745186084.9278412,9.606,6.498,0.747,63.254,-72.334,-168.948,-0.37283,0.4559,0.46542,0.66061
1745186084.928841,9.606,6.498,0.747,64.012,-72.664,-169.618,-0.37283,0.4559,0.46542,0.66061
1745186084.928841,10.822,5.521,0.579,64.479,-72.911,-170.046,-0.37283,0.4559,0.46542,0.66061
1745186084.9298418,10.822,5.521,0.579,64.962,-73.163,-170.497,-0.37283,0.4559,0.46542,0.66061
1745186084.9580638,10.099,3.898,0.421,65.231,-73.4,-170.717,-0.37283,0.4559,0.46542,0.66061
1745186085.0754442,10.099,3.898,0.421,65.511,-73.641,-170.953,-0.37283,0.4559,0.46542,0.66061
1745186085.153101,8.054,4.228,0.886,65.413,-73.746,-170.793,-0.37283,0.4559,0.46542,0.66061
1745186085.1540961,8.054,4.228,0.886,65.314,-73.85,-170.634,-0.37283,0.4559,0.46542,0.66061
1745186085.1540961,7.954,5.449,1.628,65.649,-73.96,-170.848,-0.37283,0.4559,0.46542,0.66061
1745186085.1550982,7.954,5.449,1.628,65.978,-74.064,-171.063,-0.37283,0.4559,0.46542,0.66061
1745186085.1561003,9.28,6.22,1.518,65.973,-74.185,-171.167,-0.37283,0.4559,0.46542,0.66061
1745186085.157099,9.28,6.22,1.518,65.962,-74.301,-171.271,-0.37283,0.4559,0.46542,0.66061
1745186085.1581018,10.534,4.702,1.034,65.627,-74.652,-171.008,-0.37283,0.4559,0.46542,0.66061
1745186085.1581018,10.534,4.702,1.034,65.275,-74.998,-170.733,-0.37283,0.4559,0.46542,0.66061
1745186085.1590953,12.019,2.658,1.116,65.297,-75.273,-170.76,-0.37283,0.4559,0.46542,0.66061
1745186085.1590953,12.019,2.658,1.116,65.314,-75.553,-170.793,-0.37283,0.4559,0.46542,0.66061
1745186085.1590953,10.295,3.558,1.427,65.775,-75.564,-171.392,-0.37283,0.4559,0.46542,0.66061
1745186085.1600964,10.295,3.558,1.427,66.226,-75.575,-171.985,-0.37283,0.4559,0.46542,0.66061
1745186085.1600964,9.481,4.563,1.36,66.885,-75.597,-172.776,-0.37283,0.4559,0.46542,0.66061
1745186085.161095,9.481,4.563,1.36,67.538,-75.608,-173.568,-0.37283,0.4559,0.46542,0.66061
1745186085.161095,9.85,4.908,2.045,68.055,-75.668,-174.293,-0.37283,0.4559,0.46542,0.66061
1745186085.1620955,9.85,4.908,2.045,68.56,-75.723,-175.007,-0.37283,0.4559,0.46542,0.66061
1745186085.1620955,11.444,4.357,0.982,69.115,-75.938,-175.809,-0.37283,0.4559,0.46542,0.66061
1745186085.1620955,11.444,4.357,0.982,69.692,-76.157,-176.633,-0.37283,0.4559,0.46542,0.66061
1745186085.1730995,11.799,3.472,0.345,70.115,-76.404,-177.512,-0.37283,0.4559,0.46542,0.66061
1745186085.1740994,11.799,3.472,0.345,70.571,-76.652,-178.423,-0.37283,0.4559,0.46542,0.66061
1745186085.175097,9.716,3.361,0.8,70.466,-76.932,-178.693,-0.37283,0.4559,0.46542,0.66061
1745186085.175097,9.716,3.361,0.8,70.362,-77.212,-178.967,-0.37283,0.4559,0.46542,0.66061
1745186085.198465,9.419,3.247,2.016,70.576,-77.421,-179.258,-0.37283,0.4559,0.46542,0.66061
1745186085.321894,9.419,3.247,2.016,70.785,-77.624,-179.544,-0.37283,0.4559,0.46542,0.66061
1745186085.5766397,8.854,5.191,2.356,72.004,-77.679,179.022,-0.37283,0.4559,0.46542,0.66061
1745186085.6307735,8.854,5.191,2.356,73.218,-77.723,177.61,-0.37283,0.4559,0.46542,0.66061
1745186085.6307735,9.95,4.999,1.106,74.268,-77.904,176.353,-0.37283,0.4559,0.46542,0.66061
1745186085.6307735,9.95,4.999,1.106,75.35,-78.08,175.073,-0.35889,0.51715,0.45303,0.63116
1745186085.6317754,11.799,2.246,0.311,76.344,-78.305,173.892,-0.35889,0.51715,0.45303,0.63116
1745186085.6317754,11.799,2.246,0.311,77.393,-78.53,172.656,-0.35889,0.51715,0.45303,0.63116
1745186085.6317754,13.245,0.311,-0.196,78.47,-78.629,171.365,-0.35889,0.51715,0.45303,0.63116
1745186085.6327744,13.245,0.311,-0.196,79.579,-78.739,170.035,-0.35889,0.51715,0.45303,0.63116
1745186085.6327744,13.302,0.522,-0.508,79.948,-78.673,169.338,-0.35889,0.51715,0.45303,0.63116
1745186085.6337764,13.302,0.522,-0.508,80.321,-78.618,168.624,-0.35889,0.51715,0.45303,0.63116
1745186085.6337764,12.699,0.795,-0.412,80.486,-78.536,168.146,-0.35889,0.51715,0.45303,0.63116
1745186085.6347744,12.129,1.001,-0.259,80.31,-78.481,168.063,-0.35889,0.51715,0.45303,0.63116
1745186085.6347744,12.129,1.001,-0.259,79.794,-78.459,168.387,-0.35889,0.51715,0.45303,0.63116
1745186085.6357763,11.224,1.47,0.441,79.233,-78.437,168.75,-0.35889,0.51715,0.45303,0.63116
1745186085.6357763,11.224,1.47,0.441,78.629,-78.42,169.167,-0.35889,0.51715,0.45303,0.63116
1745186085.636775,10.75,1.441,0.709,78.102,-78.426,169.547,-0.35889,0.51715,0.45303,0.63116
1745186085.636775,10.75,1.441,0.709,77.646,-78.448,169.909,-0.35889,0.51715,0.45303,0.63116
1745186085.6377773,10.472,1.695,0.302,77.042,-78.486,170.436,-0.35889,0.51715,0.45303,0.63116
1745186085.6377773,10.472,1.695,0.302,76.284,-78.536,171.134,-0.35889,0.51715,0.45303,0.63116
1745186085.6377773,10.42,1.331,0.417,75.734,-78.58,171.59,-0.35889,0.51715,0.45303,0.63116
1745186085.638775,10.42,1.331,0.417,75.394,-78.629,171.799,-0.35889,0.51715,0.45303,0.63116
1745186085.638775,10.4,1.168,0.431,75.13,-78.668,171.953,-0.35889,0.51715,0.45303,0.63116
1745186085.638775,10.4,1.168,0.431,74.938,-78.684,172.046,-0.35889,0.51715,0.45303,0.63116
1745186085.6397772,10.309,1.398,0.057,74.724,-78.706,172.189,-0.35889,0.51715,0.45303,0.63116
1745186085.6397772,10.309,1.398,0.057,74.493,-78.723,172.37,-0.35889,0.51715,0.45303,0.63116
1745186085.6397772,9.787,1.686,0.086,74.18,-78.739,172.634,-0.35889,0.51715,0.45303,0.63116
1745186085.6407769,9.787,1.686,0.086,73.79,-78.745,172.98,-0.35889,0.51715,0.45303,0.63116
1745186085.6407769,9.16,2.03,0.359,73.262,-78.755,173.474,-0.35889,0.51715,0.45303,0.63116
1745186085.6407769,9.16,2.03,0.359,72.603,-78.772,174.128,-0.35889,0.51715,0.45303,0.63116
1745186085.6417766,9.007,2.126,0.287,72.021,-78.794,174.694,-0.35889,0.51715,0.45303,0.63116
1745186085.6417766,9.007,2.126,0.287,71.521,-78.81,175.177,-0.35889,0.51715,0.45303,0.63116
1745186085.6427777,8.6,2.207,0.575,71.191,-78.838,175.446,-0.35889,0.51715,0.45303,0.63116
1745186085.6427777,8.6,2.207,0.575,71.027,-78.871,175.496,-0.35889,0.51715,0.45303,0.63116
1745186085.6427777,8.729,1.877,0.565,70.829,-78.92,175.622,-0.35889,0.51715,0.45303,0.63116
1745186085.6437788,8.729,1.877,0.565,70.598,-78.992,175.825,-0.35889,0.51715,0.45303,0.63116
1745186085.6437788,9.088,1.681,0.436,70.477,-79.058,175.93,-0.35889,0.51715,0.45303,0.63116
1745186085.6437788,9.088,1.681,0.436,70.477,-79.118,175.924,-0.35889,0.51715,0.45303,0.63116
1745186085.6447792,9.007,1.834,0.733,70.56,-79.167,175.82,-0.35889,0.51715,0.45303,0.63116
1745186085.6447792,9.007,1.834,0.733,70.714,-79.206,175.616,-0.35889,0.51715,0.45303,0.63116
1745186085.6447792,9.242,1.705,0.718,70.823,-79.255,175.452,-0.35889,0.51715,0.45303,0.63116
1745186085.6457794,9.242,1.705,0.718,70.889,-79.316,175.331,-0.35889,0.51715,0.45303,0.63116
1745186085.6457794,9.424,1.427,0.819,70.972,-79.365,175.199,-0.35889,0.51715,0.45303,0.63116
1745186085.6517794,9.424,1.427,0.819,71.065,-79.404,175.056,-0.35889,0.51715,0.45303,0.63116
1745186085.6527772,9.371,1.614,0.905,71.115,-79.42,174.968,-0.35889,0.51715,0.45303,0.63116
1745186085.6527772,9.371,1.614,0.905,71.125,-79.426,174.924,-0.35889,0.51715,0.45303,0.63116
1745186085.6537771,9.357,1.776,0.814,71.147,-79.431,174.886,-0.35889,0.51715,0.45303,0.63116
