timestamp,AccX,AccY,AccZ,AngX,AngY,AngZ,AsX,AsY,AsZ,Q0,Q1,Q2,Q3
1746364581.1310477,-4.611,-4.597,7.484,-30.91,27.966,-2.9,0.93643,-0.25262,0.23984,0.04071
1746364581.1310477,-4.611,-4.597,7.484,-30.899,27.938,-2.884,0.93643,-0.25262,0.23984,0.04071
1746364581.1310477,-4.573,-4.472,7.638,-30.899,27.916,-2.884,0.93643,-0.25262,0.23984,0.04071
1746364581.1310477,-4.573,-4.472,7.638,-30.899,27.889,-2.889,0.93643,-0.25262,0.23984,0.04071
1746364581.196368,-4.396,-4.592,7.475,-30.905,27.883,-2.9,0.93643,-0.25262,0.23984,0.04071
1746364581.2484632,-4.396,-4.592,7.475,-30.91,27.878,-2.917,0.93643,-0.25262,0.23984,0.04071
1746364581.2484632,-4.52,-4.448,7.489,-30.916,27.856,-2.9,0.93643,-0.25262,0.23984,0.04071
1746364581.252506,-4.52,-4.448,7.489,-30.916,27.839,-2.889,0.93643,-0.25262,0.23984,0.04071
1746364581.2535262,-4.539,-4.606,7.293,-30.932,27.834,-2.917,0.93643,-0.25262,0.23984,0.04071
1746364581.2557538,-4.539,-4.606,7.293,-30.954,27.828,-2.939,0.93643,-0.25262,0.23984,0.04071
1746364581.2565222,-4.429,-4.587,7.36,-30.943,27.806,-2.928,0.93643,-0.25262,0.23984,0.04071
1746364581.2565222,-4.429,-4.587,7.36,-30.932,27.784,-2.917,0.93643,-0.25262,0.23984,0.04071
1746364581.286644,-4.391,-4.448,7.57,-30.927,27.79,-2.933,0.93643,-0.25262,0.23984,0.04071
1746364581.2876465,-4.391,-4.448,7.57,-30.921,27.79,-2.955,0.93643,-0.25262,0.23984,0.04071
1746364581.288648,-4.348,-4.511,7.484,-30.932,27.812,-2.977,0.93643,-0.25262,0.23984,0.04071
1746364581.290646,-4.348,-4.511,7.484,-30.943,27.828,-3.005,0.93643,-0.25262,0.23984,0.04071
1746364581.3174477,-4.448,-4.606,7.341,-30.943,27.823,-2.999,0.93643,-0.25262,0.23984,0.04071
1746364581.3464382,-4.448,-4.606,7.341,-30.943,27.817,-2.999,0.93643,-0.25262,0.23984,0.04071
1746364581.347441,-4.463,-4.563,7.46,-30.921,27.79,-2.972,0.93643,-0.25262,0.23984,0.04071
1746364581.3484426,-4.463,-4.563,7.46,-30.899,27.768,-2.944,0.93695,-0.25262,0.23798,0.03979
1746364581.3494458,-4.362,-4.583,7.604,-30.888,27.746,-2.922,0.93695,-0.25262,0.23798,0.03979
1746364581.3504426,-4.362,-4.583,7.604,-30.883,27.724,-2.9,0.93695,-0.25262,0.23798,0.03979
1746364581.3514464,-4.357,-4.597,7.7,-30.872,27.719,-2.884,0.93695,-0.25262,0.23798,0.03979
1746364581.3524444,-4.357,-4.597,7.7,-30.861,27.713,-2.862,0.93695,-0.25262,0.23798,0.03979
1746364581.4064374,-4.448,-4.63,7.652,-30.861,27.729,-2.856,0.93695,-0.25262,0.23798,0.03979
1746364581.408646,-4.448,-4.63,7.652,-30.855,27.751,-2.845,0.93695,-0.25262,0.23798,0.03979
1746364581.409441,-4.717,-4.602,7.59,-30.839,27.757,-2.812,0.93695,-0.25262,0.23798,0.03979
1746364581.4104376,-4.717,-4.602,7.59,-30.822,27.762,-2.78,0.93695,-0.25262,0.23798,0.03979
1746364581.4321404,-4.86,-4.52,7.628,-30.817,27.762,-2.763,0.93695,-0.25262,0.23798,0.03979
1746364581.4840713,-4.86,-4.52,7.628,-30.811,27.768,-2.747,0.93695,-0.25262,0.23798,0.03979
1746364581.4840713,-4.875,-4.592,7.484,-30.828,27.773,-2.763,0.93695,-0.25262,0.23798,0.03979
1746364581.4840713,-4.875,-4.592,7.484,-30.844,27.779,-2.774,0.93695,-0.25262,0.23798,0.03979
1746364581.4840713,-4.63,-4.683,7.35,-30.85,27.773,-2.769,0.93695,-0.25262,0.23798,0.03979
1746364581.4840713,-4.63,-4.683,7.35,-30.855,27.762,-2.758,0.93695,-0.25262,0.23798,0.03979
1746364581.4917767,-4.745,-4.559,7.489,-30.839,27.746,-2.752,0.93695,-0.25262,0.23798,0.03979
1746364581.4927976,-4.745,-4.559,7.489,-30.822,27.729,-2.747,0.93695,-0.25262,0.23798,0.03979
1746364581.5267832,-4.673,-4.458,7.661,-30.828,27.724,-2.763,0.93695,-0.25262,0.23798,0.03979
1746364581.5277798,-4.673,-4.458,7.661,-30.828,27.724,-2.774,0.93695,-0.25262,0.23798,0.03979
1746364581.5287836,-4.621,-4.693,7.408,-30.85,27.719,-2.807,0.93695,-0.25262,0.23798,0.03979
1746364581.5307786,-4.621,-4.693,7.408,-30.872,27.719,-2.84,0.93695,-0.25262,0.23798,0.03979
1746364581.549519,-4.439,-4.755,7.374,-30.861,27.702,-2.851,0.93695,-0.25262,0.23798,0.03979
1746364581.5854945,-4.439,-4.755,7.374,-30.855,27.68,-2.862,0.93695,-0.25262,0.23798,0.03979
1746364581.5854945,-4.578,-4.539,7.58,-30.844,27.653,-2.862,0.93695,-0.25262,0.23798,0.03979
1746364581.5854945,-4.578,-4.539,7.58,-30.833,27.62,-2.856,0.93735,-0.25238,0.23663,0.0401
1746364581.590744,-4.386,-4.592,7.527,-30.839,27.609,-2.867,0.93735,-0.25238,0.23663,0.0401
1746364581.5915964,-4.386,-4.592,7.527,-30.839,27.592,-2.873,0.93735,-0.25238,0.23663,0.0401
1746364581.5925975,-4.357,-4.559,7.508,-30.833,27.587,-2.895,0.93735,-0.25238,0.23663,0.0401
1746364581.5925975,-4.357,-4.559,7.508,-30.833,27.581,-2.917,0.93735,-0.25238,0.23663,0.0401
1746364581.6466322,-4.396,-4.587,7.47,-30.822,27.565,-2.906,0.93735,-0.25238,0.23663,0.0401
1746364581.6486459,-4.396,-4.587,7.47,-30.811,27.548,-2.895,0.93735,-0.25238,0.23663,0.0401
1746364581.6496353,-4.559,-4.463,7.618,-30.811,27.537,-2.906,0.93735,-0.25238,0.23663,0.0401
1746364581.7596323,-4.559,-4.463,7.618,-30.811,27.521,-2.917,0.93735,-0.25238,0.23663,0.0401
1746364581.7596323,-4.506,-4.53,7.432,-30.811,27.532,-2.955,0.93735,-0.25238,0.23663,0.0401
1746364581.7606297,-4.506,-4.53,7.432,-30.811,27.543,-2.988,0.93735,-0.25238,0.23663,0.0401
1746364581.7606297,-4.539,-4.453,7.499,-30.789,27.532,-2.999,0.93735,-0.25238,0.23663,0.0401
1746364581.7606297,-4.539,-4.453,7.499,-30.767,27.521,-3.005,0.93735,-0.25238,0.23663,0.0401
1746364581.7616293,-4.693,-4.243,7.738,-30.778,27.493,-3.01,0.93735,-0.25238,0.23663,0.0401
1746364581.7616293,-4.693,-4.243,7.738,-30.784,27.471,-3.021,0.93735,-0.25238,0.23663,0.0401
1746364581.7616293,-4.515,-4.439,7.556,-30.833,27.46,-3.049,0.93735,-0.25238,0.23663,0.0401
1746364581.7626305,-4.515,-4.439,7.556,-30.877,27.449,-3.076,0.93735,-0.25238,0.23663,0.0401
1746364581.7646298,-4.338,-4.64,7.499,-30.927,27.422,-3.087,0.93735,-0.25238,0.23663,0.0401
1746364581.7656295,-4.338,-4.64,7.499,-30.97,27.394,-3.104,0.93735,-0.25238,0.23663,0.0401
1746364581.766637,-4.367,-4.697,7.465,-31.014,27.394,-3.148,0.93735,-0.25238,0.23663,0.0401
1746364581.766637,-4.367,-4.697,7.465,-31.058,27.4,-3.186,0.93735,-0.25238,0.23663,0.0401
1746364581.796867,-4.348,-4.755,7.389,-31.097,27.383,-3.208,0.93735,-0.25238,0.23663,0.0401
1746364581.79787,-4.319,-4.793,7.46,-31.119,27.356,-3.208,0.93735,-0.25238,0.23663,0.0401
1746364581.7998674,-4.319,-4.793,7.46,-31.124,27.312,-3.192,0.93735,-0.25238,0.23663,0.0401
1746364581.8008714,-4.329,-4.707,7.733,-31.124,27.279,-3.17,0.93735,-0.25238,0.23663,0.0401
1746364581.8264554,-4.329,-4.707,7.733,-31.108,27.252,-3.148,0.93735,-0.25238,0.23663,0.0401
1746364581.8278017,-4.544,-4.626,7.728,-31.097,27.235,-3.126,0.93735,-0.25238,0.23663,0.0401
1746364581.8284488,-4.544,-4.626,7.728,-31.086,27.23,-3.109,0.93765,-0.25421,0.2338,0.03757
1746364581.829463,-4.645,-4.515,7.767,-31.08,27.219,-3.093,0.93765,-0.25421,0.2338,0.03757
1746364581.8867984,-4.645,-4.515,7.767,-31.08,27.202,-3.082,0.93765,-0.25421,0.2338,0.03757
1746364581.9342053,-4.673,-4.563,7.599,-31.086,27.186,-3.076,0.93765,-0.25421,0.2338,0.03757
1746364581.9352021,-4.673,-4.563,7.599,-31.102,27.175,-3.076,0.93765,-0.25421,0.2338,0.03757
1746364581.9352021,-4.741,-4.659,7.436,-31.113,27.158,-3.082,0.93765,-0.25421,0.2338,0.03757
1746364581.9362016,-4.741,-4.659,7.436,-31.124,27.131,-3.093,0.93765,-0.25421,0.2338,0.03757
1746364581.937199,-4.568,-4.707,7.427,-31.124,27.103,-3.093,0.93765,-0.25421,0.2338,0.03757
1746364581.937199,-4.568,-4.707,7.427,-31.108,27.07,-3.093,0.93765,-0.25421,0.2338,0.03757
1746364581.9381993,-4.515,-4.41,7.853,-31.097,27.048,-3.093,0.93765,-0.25421,0.2338,0.03757
1746364581.946193,-4.515,-4.41,7.853,-31.08,27.043,-3.104,0.93765,-0.25421,0.2338,0.03757
1746364581.9472172,-4.539,-4.453,7.863,-31.091,27.021,-3.12,0.93765,-0.25421,0.2338,0.03757
1746364581.9482193,-4.539,-4.453,7.863,-31.124,26.988,-3.148,0.93765,-0.25421,0.2338,0.03757
1746364581.9482193,-4.372,-4.678,7.614,-31.157,26.944,-3.17,0.93765,-0.25421,0.2338,0.03757
1746364582.006883,-4.372,-4.678,7.614,-31.196,26.889,-3.186,0.93765,-0.25421,0.2338,0.03757
1746364582.0374637,-4.439,-4.611,7.69,-31.234,26.84,-3.214,0.93811,-0.25516,0.23111,0.03641
1746364582.038466,-4.439,-4.611,7.69,-31.278,26.807,-3.246,0.93811,-0.25516,0.23111,0.03641
1746364582.0394592,-4.305,-4.769,7.652,-31.339,26.785,-3.29,0.93811,-0.25516,0.23111,0.03641
1746364582.0404596,-4.305,-4.769,7.652,-31.404,26.763,-3.34,0.93811,-0.25516,0.23111,0.03641
1746364582.041461,-4.252,-4.932,7.537,-31.448,26.741,-3.373,0.93811,-0.25516,0.23111,0.03641
1746364582.0424607,-4.252,-4.932,7.537,-31.481,26.713,-3.4,0.93811,-0.25516,0.23111,0.03641
1746364582.0434597,-4.257,-4.98,7.422,-31.492,26.697,-3.417,0.93811,-0.25516,0.23111,0.03641
1746364582.0665495,-4.257,-4.98,7.422,-31.487,26.686,-3.428,0.93811,-0.25516,0.23111,0.03641
1746364582.0684307,-4.568,-4.779,7.575,-31.448,26.658,-3.417,0.93811,-0.25516,0.23111,0.03641
1746364582.0684307,-4.568,-4.779,7.575,-31.388,26.625,-3.389,0.93811,-0.25516,0.23111,0.03641
1746364582.0704308,-4.592,-4.597,7.748,-31.322,26.587,-3.378,0.93811,-0.25516,0.23111,0.03641
1746364582.1274788,-4.592,-4.597,7.748,-31.245,26.543,-3.384,0.93811,-0.25516,0.23111,0.03641
1746364582.1729636,-4.492,-4.544,7.834,-31.168,26.477,-3.367,0.93811,-0.25516,0.23111,0.03641
1746364582.1742854,-4.492,-4.544,7.834,-31.091,26.373,-3.334,0.93811,-0.25516,0.23111,0.03641
1746364582.1742854,-4.223,-4.525,7.8,-31.042,26.268,-3.318,0.93811,-0.25516,0.23111,0.03641
1746364582.1752892,-4.223,-4.525,7.8,-31.025,26.158,-3.318,0.93964,-0.25415,0.22641,0.0336
1746364582.1762905,-4.008,-4.688,7.58,-31.031,26.098,-3.334,0.93964,-0.25415,0.22641,0.0336
1746364582.1762905,-4.008,-4.688,7.58,-31.064,26.071,-3.378,0.93964,-0.25415,0.22641,0.0336
1746364582.1772861,-3.979,-4.76,7.532,-31.119,26.071,-3.422,0.93964,-0.25415,0.22641,0.0336
1746364582.18633,-3.979,-4.76,7.532,-31.207,26.082,-3.466,0.93964,-0.25415,0.22641,0.0336
1746364582.18633,-4.056,-4.755,7.728,-31.306,26.125,-3.549,0.93964,-0.25415,0.22641,0.0336
1746364582.187349,-4.056,-4.755,7.728,-31.415,26.202,-3.658,0.93964,-0.25415,0.22641,0.0336
1746364582.187349,-4.223,-4.812,7.661,-31.558,26.318,-3.796,0.93964,-0.25415,0.22641,0.0336
1746364582.2470086,-4.223,-4.812,7.661,-31.745,26.472,-3.961,0.93964,-0.25415,0.22641,0.0336
1746364582.2968864,-4.492,-4.913,7.599,-31.893,26.603,-4.103,0.93964,-0.25415,0.22641,0.0336
1746364582.297897,-4.492,-4.913,7.599,-32.014,26.702,-4.224,0.93964,-0.25415,0.22641,0.0336
1746364582.297897,-4.774,-4.865,7.681,-32.119,26.79,-4.345,0.93964,-0.25415,0.22641,0.0336
1746364582.2988856,-4.774,-4.865,7.681,-32.201,26.862,-4.466,0.93964,-0.25415,0.22641,0.0336
1746364582.2998812,-4.587,-5.013,7.556,-32.283,26.927,-4.587,0.93964,-0.25415,0.22641,0.0336
1746364582.2998812,-4.587,-5.013,7.556,-32.382,26.993,-4.708,0.93964,-0.25415,0.22641,0.0336
1746364582.3008819,-4.817,-4.827,7.685,-32.459,27.043,-4.823,0.93964,-0.25415,0.22641,0.0336
1746364582.3048782,-4.817,-4.827,7.685,-32.525,27.081,-4.944,0.93964,-0.25415,0.22641,0.0336
1746364582.3058825,-4.76,-4.836,7.527,-32.591,27.103,-5.07,0.93964,-0.25415,0.22641,0.0336
1746364582.3058825,-4.76,-4.836,7.527,-32.662,27.109,-5.191,0.93964,-0.25415,0.22641,0.0336
1746364582.3068821,-4.602,-5.004,7.288,-32.734,27.098,-5.295,0.93964,-0.25415,0.22641,0.0336
1746364582.3658895,-4.602,-5.004,7.288,-32.811,27.065,-5.372,0.93964,-0.25415,0.22641,0.0336
1746364582.387243,-4.458,-4.913,7.446,-32.882,27.021,-5.427,0.93964,-0.25415,0.22641,0.0336
1746364582.3878942,-4.458,-4.913,7.446,-32.953,26.966,-5.46,0.93964,-0.25415,0.22641,0.0336
1746364582.3878942,-4.721,-4.616,7.556,-33.047,26.917,-5.504,0.93964,-0.25415,0.22641,0.0336
1746364582.3963757,-4.721,-4.616,7.556,-33.157,26.873,-5.548,0.93442,-0.26553,0.23615,0.02133
1746364582.3972685,-4.654,-4.922,7.14,-33.278,26.823,-5.614,0.93442,-0.26553,0.23615,0.02133
1746364582.3982627,-4.654,-4.922,7.14,-33.404,26.768,-5.696,0.93442,-0.26553,0.23615,0.02133
1746364582.3992622,-4.405,-4.966,7.269,-33.514,26.708,-5.757,0.93442,-0.26553,0.23615,0.02133
1746364582.4281857,-4.405,-4.966,7.269,-33.602,26.647,-5.801,0.93442,-0.26553,0.23615,0.02133
1746364582.4290588,-4.63,-4.827,7.278,-33.701,26.592,-5.861,0.93442,-0.26553,0.23615,0.02133
1746364582.430056,-4.63,-4.827,7.278,-33.805,26.554,-5.949,0.93442,-0.26553,0.23615,0.02133
1746364582.4310536,-4.219,-4.975,7.02,-33.898,26.51,-6.031,0.93442,-0.26553,0.23615,0.02133
1746364582.4860175,-4.219,-4.975,7.02,-33.97,26.455,-6.119,0.93442,-0.26553,0.23615,0.02133
1746364582.5323713,-3.912,-4.918,7.135,-34.003,26.362,-6.141,0.93442,-0.26553,0.23615,0.02133
1746364582.5333867,-3.912,-4.918,7.135,-33.992,26.224,-6.108,0.93442,-0.26553,0.23615,0.02133
1746364582.5343742,-4.022,-4.597,7.479,-33.986,26.093,-6.064,0.93442,-0.26553,0.23615,0.02133
1746364582.5353808,-4.022,-4.597,7.479,-33.981,25.966,-6.01,0.93442,-0.26553,0.23615,0.02133
1746364582.5363774,-4.056,-4.482,7.36,-34.025,25.873,-6.01,0.93442,-0.26553,0.23615,0.02133
1746364582.5363774,-4.056,-4.482,7.36,-34.113,25.812,-6.075,0.93442,-0.26553,0.23615,0.02133
1746364582.5373807,-3.84,-4.717,7.202,-34.206,25.741,-6.119,0.93442,-0.26553,0.23615,0.02133
1746364582.5468426,-3.84,-4.717,7.202,-34.31,25.653,-6.152,0.93442,-0.26553,0.23615,0.02133
1746364582.5478494,-3.716,-4.899,7.192,-34.409,25.576,-6.191,0.93442,-0.26553,0.23615,0.02133
1746364582.5488448,-3.716,-4.899,7.192,-34.508,25.521,-6.235,0.93442,-0.26553,0.23615,0.02133
1746364582.5488448,-3.457,-5.306,6.914,-34.59,25.477,-6.279,0.93442,-0.26553,0.23615,0.02133
1746364582.607199,-3.457,-5.306,6.914,-34.667,25.455,-6.328,0.93442,-0.26553,0.23615,0.02133
1746364582.6358244,-3.405,-5.31,6.895,-34.717,25.439,-6.345,0.93326,-0.27856,0.22604,0.01413
1746364582.6368334,-3.405,-5.31,6.895,-34.728,25.428,-6.334,0.93326,-0.27856,0.22604,0.01413
1746364582.6388202,-3.773,-5.143,7.211,-34.739,25.433,-6.334,0.93326,-0.27856,0.22604,0.01413
1746364582.639827,-3.773,-5.143,7.211,-34.744,25.461,-6.35,0.93326,-0.27856,0.22604,0.01413
1746364582.6408267,-3.97,-5.167,7.254,-34.755,25.488,-6.372,0.93326,-0.27856,0.22604,0.01413
1746364582.6418245,-3.97,-5.167,7.254,-34.766,25.521,-6.405,0.93326,-0.27856,0.22604,0.01413
1746364582.6428254,-3.965,-5.133,7.384,-34.783,25.543,-6.449,0.93326,-0.27856,0.22604,0.01413
1746364582.6967297,-3.965,-5.133,7.384,-34.81,25.565,-6.509,0.93326,-0.27856,0.22604,0.01413
1746364582.697722,-4.075,-5.387,7.211,-34.838,25.571,-6.548,0.93326,-0.27856,0.22604,0.01413
1746364582.698728,-4.075,-5.387,7.211,-34.871,25.571,-6.57,0.93326,-0.27856,0.22604,0.01413
1746364582.7007208,-4.219,-5.353,7.321,-34.893,25.565,-6.575,0.93326,-0.27856,0.22604,0.01413
1746364582.727245,-4.219,-5.353,7.321,-34.909,25.565,-6.559,0.93326,-0.27856,0.22604,0.01413
1746364582.7815003,-4.367,-5.363,7.403,-34.937,25.571,-6.564,0.93326,-0.27856,0.22604,0.01413
1746364582.7815003,-4.367,-5.363,7.403,-34.964,25.576,-6.592,0.93326,-0.27856,0.22604,0.01413
1746364582.7821422,-4.185,-5.42,7.298,-34.986,25.598,-6.608,0.93326,-0.27856,0.22604,0.01413
1746364582.783145,-4.185,-5.42,7.298,-35.002,25.631,-6.619,0.93326,-0.27856,0.22604,0.01413
1746364582.7841907,-4.338,-4.985,7.446,-35.008,25.664,-6.625,0.93326,-0.27856,0.22604,0.01413
1746364582.7851348,-4.338,-4.985,7.446,-35.019,25.692,-6.625,0.9321,-0.28055,0.22852,0.013
1746364582.7851348,-4.439,-4.836,7.312,-35.041,25.719,-6.625,0.9321,-0.28055,0.22852,0.013
1746364582.8160698,-4.439,-4.836,7.312,-35.085,25.741,-6.636,0.9321,-0.28055,0.22852,0.013
1746364582.8160698,-4.611,-4.999,6.823,-35.134,25.785,-6.68,0.9321,-0.28055,0.22852,0.013
1746364582.8170671,-4.611,-4.999,6.823,-35.189,25.851,-6.757,0.9321,-0.28055,0.22852,0.013
1746364582.8180673,-4.63,-4.932,7.144,-35.239,25.889,-6.823,0.9321,-0.28055,0.22852,0.013
1746364582.8464494,-4.63,-4.932,7.144,-35.277,25.906,-6.883,0.9321,-0.28055,0.22852,0.013
1746364582.900925,-4.444,-5.258,7.159,-35.327,25.933,-6.96,0.9321,-0.28055,0.22852,0.013
1746364582.900925,-4.444,-5.258,7.159,-35.381,25.961,-7.048,0.9321,-0.28055,0.22852,0.013
1746364582.9021707,-4.669,-5.301,7.269,-35.42,25.972,-7.108,0.9321,-0.28055,0.22852,0.013
1746364582.902926,-4.669,-5.301,7.269,-35.442,25.961,-7.141,0.9321,-0.28055,0.22852,0.013
1746364582.9039283,-4.53,-5.057,7.709,-35.447,25.862,-7.119,0.9321,-0.28055,0.22852,0.013
1746364582.9049308,-4.53,-5.057,7.709,-35.453,25.757,-7.092,0.9321,-0.28055,0.22852,0.013
1746364582.9049308,-4.161,-5.066,8.078,-35.513,25.67,-7.086,0.9321,-0.28055,0.22852,0.013
1746364582.9367855,-4.161,-5.066,8.078,-35.574,25.582,-7.075,0.9321,-0.28055,0.22852,0.013
1746364582.9377863,-3.673,-5.334,8.068,-35.695,25.582,-7.152,0.9321,-0.28055,0.22852,0.013
1746364582.9387865,-3.673,-5.334,8.068,-35.821,25.582,-7.229,0.9321,-0.28055,0.22852,0.013
1746364582.939798,-3.883,-5.598,7.293,-35.942,25.681,-7.372,0.9321,-0.28055,0.22852,0.013
1746364582.9659462,-3.883,-5.598,7.293,-36.063,25.774,-7.515,0.9321,-0.28055,0.22852,0.013
1746364582.9949381,-4.228,-5.449,6.919,-36.134,25.834,-7.608,0.9321,-0.28055,0.22852,0.013
1746364582.996791,-4.228,-5.449,6.919,-36.205,25.9,-7.696,0.9321,-0.28055,0.22852,0.013
1746364582.9979818,-4.721,-5.373,6.507,-36.255,25.944,-7.767,0.92877,-0.28793,0.23312,0.00711
1746364582.9996836,-4.721,-5.373,6.507,-36.31,25.994,-7.833,0.92877,-0.28793,0.23312,0.00711
1746364582.9996836,-4.563,-5.449,6.244,-36.337,26.021,-7.91,0.92877,-0.28793,0.23312,0.00711
1746364583.0006812,-4.563,-5.449,6.244,-36.365,26.049,-7.987,0.92877,-0.28793,0.23312,0.00711
1746364583.0017648,-4.238,-5.215,6.685,-36.343,25.955,-7.927,0.92877,-0.28793,0.23312,0.00711
1746364583.0565915,-4.238,-5.215,6.685,-36.326,25.862,-7.866,0.92877,-0.28793,0.23312,0.00711
1746364583.0575876,-3.95,-5.08,6.891,-36.315,25.801,-7.85,0.92877,-0.28793,0.23312,0.00711
1746364583.058598,-3.95,-5.08,6.891,-36.304,25.741,-7.828,0.92877,-0.28793,0.23312,0.00711
1746364583.059596,-3.682,-4.817,6.843,-36.299,25.724,-7.828,0.92877,-0.28793,0.23312,0.00711
1746364583.086367,-3.682,-4.817,6.843,-36.288,25.703,-7.822,0.92877,-0.28793,0.23312,0.00711
1746364583.139959,-3.668,-4.463,6.694,-36.282,25.703,-7.844,0.92877,-0.28793,0.23312,0.00711
1746364583.1409588,-3.668,-4.463,6.694,-36.277,25.697,-7.866,0.92877,-0.28793,0.23312,0.00711
1746364583.141957,-3.438,-4.391,6.0,-36.277,25.703,-7.905,0.92902,-0.28824,0.23172,0.00534
1746364583.1429589,-3.438,-4.391,6.0,-36.277,25.703,-7.938,0.92902,-0.28824,0.23172,0.00534
1746364583.1429589,-3.433,-3.812,4.664,-36.227,25.746,-8.042,0.92902,-0.28824,0.23172,0.00534
1746364583.143956,-3.433,-3.812,4.664,-36.178,25.79,-8.141,0.92902,-0.28824,0.23172,0.00534
1746364583.144964,-3.117,-3.036,2.691,-36.041,25.746,-8.333,0.92902,-0.28824,0.23172,0.00534
1746364583.1762216,-3.117,-3.036,2.691,-35.909,25.714,-8.525,0.92902,-0.28824,0.23172,0.00534
1746364583.1772807,-1.877,-2.5,2.025,-35.596,25.631,-8.657,0.92902,-0.28824,0.23172,0.00534
1746364583.1772807,-1.877,-2.5,2.025,-35.288,25.549,-8.789,0.92902,-0.28824,0.23172,0.00534
1746364583.1785693,-1.887,-0.268,2.16,-34.794,25.225,-8.503,0.92902,-0.28824,0.23172,0.00534
1746364583.206061,-1.887,-0.268,2.16,-34.299,24.906,-8.223,0.92902,-0.28824,0.23172,0.00534
1746364583.2494395,-1.475,1.791,2.495,-33.849,24.752,-8.322,0.92902,-0.28824,0.23172,0.00534
1746364583.2494395,-1.475,1.791,2.495,-33.382,24.609,-8.416,0.92902,-0.28824,0.23172,0.00534
1746364583.2494395,1.901,1.834,0.958,-32.871,24.324,-8.35,0.92902,-0.28824,0.23172,0.00534
1746364583.2629554,1.901,1.834,0.958,-32.344,24.027,-8.278,0.92902,-0.28824,0.23172,0.00534
1746364583.2629554,1.93,2.298,-0.364,-31.619,23.758,-7.927,0.92902,-0.28824,0.23172,0.00534
1746364583.2639847,1.93,2.298,-0.364,-30.883,23.478,-7.575,0.92902,-0.28824,0.23172,0.00534
1746364583.264988,2.064,2.447,-0.982,-29.96,23.379,-7.504,0.92902,-0.28824,0.23172,0.00534
1746364583.2970932,2.064,2.447,-0.982,-29.009,23.264,-7.427,0.92902,-0.28824,0.23172,0.00534
1746364583.2980926,2.978,1.211,-2.6,-27.23,22.665,-6.608,0.92902,-0.28824,0.23172,0.00534
1746364583.2990932,2.978,1.211,-2.6,-25.455,21.978,-5.828,0.92902,-0.28824,0.23172,0.00534
1746364583.3000975,0.115,5.511,1.298,-22.495,20.803,-4.653,0.92902,-0.28824,0.23172,0.00534
1746364583.326498,0.115,5.511,1.298,-19.512,19.567,-3.565,0.92902,-0.28824,0.23172,0.00534
1746364583.353651,2.255,6.891,2.954,-16.88,19.012,-3.032,0.92902,-0.28824,0.23172,0.00534
1746364583.35465,2.255,6.891,2.954,-14.277,18.391,-2.571,0.92902,-0.28824,0.23172,0.00534
1746364583.3556533,0.733,7.101,2.188,-11.475,18.188,-1.648,0.98117,-0.10779,0.15997,-0.00021
1746364583.3566582,0.733,7.101,2.188,-8.679,17.93,-0.742,0.98117,-0.10779,0.15997,-0.00021
1746364583.3576434,-9.285,23.999,11.746,-5.444,17.721,0.621,0.98117,-0.10779,0.15997,-0.00021
1746364583.3586516,-37.148,95.998,46.984,-2.197,17.633,2.164,0.98117,-0.10779,0.15997,-0.00021
1746364583.3596475,-5.138,17.894,14.107,0.577,17.996,3.911,0.98117,-0.10779,0.15997,-0.00021
1746364583.4167068,-5.138,17.894,14.107,3.351,18.276,5.663,0.98117,-0.10779,0.15997,-0.00021
1746364583.4173422,-7.389,19.072,17.119,5.779,19.034,7.806,0.98117,-0.10779,0.15997,-0.00021
1746364583.4183464,-7.389,19.072,17.119,8.223,19.698,9.987,0.98117,-0.10779,0.15997,-0.00021
1746364583.4193397,-9.567,19.111,21.031,10.585,20.424,12.426,0.98117,-0.10779,0.15997,-0.00021
1746364583.4463406,-9.567,19.111,21.031,12.958,21.055,14.908,0.98117,-0.10779,0.15997,-0.00021
1746364583.506186,-11.219,21.821,28.807,15.051,22.478,17.704,0.98117,-0.10779,0.15997,-0.00021
1746364583.5078254,-11.219,21.821,28.807,17.216,23.796,20.588,0.98117,-0.10779,0.15997,-0.00021
1746364583.5088315,-15.61,22.367,30.148,18.611,25.241,23.851,0.98117,-0.10779,0.15997,-0.00021
1746364583.509819,-15.61,22.367,30.148,20.094,26.609,27.202,0.98117,-0.10779,0.15997,-0.00021
1746364583.5108254,-18.253,17.454,26.743,21.182,27.087,30.817,0.98117,-0.10779,0.15997,-0.00021
1746364583.5118334,-18.253,17.454,26.743,22.286,27.504,34.464,0.98117,-0.10779,0.15997,-0.00021
1746364583.5128284,-18.268,15.534,25.896,23.291,27.004,38.128,0.98117,-0.10779,0.15997,-0.00021
1746364583.5371487,-18.268,15.534,25.896,24.236,26.461,41.77,0.98117,-0.10779,0.15997,-0.00021
1746364583.5379865,-20.126,15.826,27.835,24.873,25.274,45.346,0.98117,-0.10779,0.15997,-0.00021
1746364583.538983,-20.126,15.826,27.835,25.411,24.066,48.873,0.98117,-0.10779,0.15997,-0.00021
1746364583.5399845,-22.199,16.774,30.88,25.241,23.0,52.163,0.98117,-0.10779,0.15997,-0.00021
1746364583.5668986,-22.199,16.774,30.88,25.01,21.956,55.432,0.98117,-0.10779,0.15997,-0.00021
1746364583.5929067,-25.604,15.285,27.428,23.708,21.286,58.53,0.98117,-0.10779,0.15997,-0.00021
1746364583.5929067,-25.604,15.285,27.428,22.379,20.693,61.628,0.98117,-0.10779,0.15997,-0.00021
1746364583.5939045,-30.2,12.033,19.661,20.165,20.182,64.369,0.84662,0.07367,0.24911,0.46439
1746364583.5960507,-30.2,12.033,19.661,17.946,19.781,67.11,0.84662,0.07367,0.24911,0.46439
1746364583.5960507,-33.481,5.057,10.175,15.397,18.463,69.203,0.84662,0.07367,0.24911,0.46439
1746364583.5968971,-33.481,5.057,10.175,12.832,17.249,71.323,0.84662,0.07367,0.24911,0.46439
1746364583.597898,-28.012,-0.306,4.075,10.437,15.408,72.96,0.84662,0.07367,0.24911,0.46439
1746364583.648661,-28.012,-0.306,4.075,8.02,13.661,74.641,0.84662,0.07367,0.24911,0.46439
1746364583.648661,-18.378,-2.361,1.01,5.823,11.975,76.025,0.84662,0.07367,0.24911,0.46439
1746364583.648661,-18.378,-2.361,1.01,3.615,10.36,77.459,0.84662,0.07367,0.24911,0.46439
1746364583.648661,-13.278,-3.61,-2.121,1.505,9.492,78.536,0.84662,0.07367,0.24911,0.46439
1746364583.6866918,-13.278,-3.61,-2.121,-0.599,8.679,79.634,0.84662,0.07367,0.24911,0.46439
1746364583.7275507,-9.61,-7.149,-7.283,-2.379,7.987,80.684,0.84662,0.07367,0.24911,0.46439
1746364583.728548,-9.61,-7.149,-7.283,-4.158,7.344,81.744,0.84662,0.07367,0.24911,0.46439
1746364583.728548,-5.885,-6.804,-6.867,-5.532,6.163,83.106,0.84662,0.07367,0.24911,0.46439
1746364583.7467465,-5.885,-6.804,-6.867,-6.921,5.037,84.485,0.84662,0.07367,0.24911,0.46439
1746364583.7471225,-5.2,-4.664,-3.926,-8.201,4.043,85.93,0.84662,0.07367,0.24911,0.46439
1746364583.7481275,-5.2,-4.664,-3.926,-9.492,3.098,87.374,0.72769,-0.07629,-0.02292,0.68118
1746364583.748537,-5.804,-5.99,-5.229,-10.695,3.082,88.099,0.72769,-0.07629,-0.02292,0.68118
1746364583.7652807,-5.804,-5.99,-5.229,-11.887,3.093,88.808,0.72769,-0.07629,-0.02292,0.68118
1746364583.7652807,-10.228,-7.092,-7.805,-12.728,3.488,89.022,0.72769,-0.07629,-0.02292,0.68118
1746364583.7652807,-10.228,-7.092,-7.805,-13.491,3.851,89.154,0.72769,-0.07629,-0.02292,0.68118
1746364583.780054,-9.807,-10.209,-9.175,-14.145,3.224,89.808,0.72769,-0.07629,-0.02292,0.68118
1746364583.8005233,-9.807,-10.209,-9.175,-15.266,2.538,90.906,0.72769,-0.07629,-0.02292,0.68118
1746364583.8571734,-5.904,-9.424,-5.521,-15.716,1.642,91.917,0.72769,-0.07629,-0.02292,0.68118
1746364583.8585258,-5.904,-9.424,-5.521,-16.177,0.769,92.906,0.72769,-0.07629,-0.02292,0.68118
1746364583.8591743,-1.82,-6.962,-1.618,-16.441,0.214,93.598,0.72769,-0.07629,-0.02292,0.68118
1746364583.8601778,-1.82,-6.962,-1.618,-16.705,-0.335,94.274,0.72769,-0.07629,-0.02292,0.68118
1746364583.8611777,-1.207,-4.899,1.417,-17.001,-0.725,94.697,0.72769,-0.07629,-0.02292,0.68118
1746364583.8611777,-1.207,-4.899,1.417,-17.292,-1.115,95.12,0.72769,-0.07629,-0.02292,0.68118
1746364583.8621714,1.12,-3.084,4.209,-17.639,-1.39,95.422,0.72769,-0.07629,-0.02292,0.68118
1746364583.896736,1.12,-3.084,4.209,-17.974,-1.664,95.724,0.72769,-0.07629,-0.02292,0.68118
1746364583.8977408,1.202,-2.102,5.622,-18.43,-1.747,95.85,0.72769,-0.07629,-0.02292,0.68118
1746364583.8987381,1.202,-2.102,5.622,-18.853,-1.818,95.966,0.72769,-0.07629,-0.02292,0.68118
1746364583.8997402,2.342,-1.633,6.804,-19.292,-1.763,95.916,0.72769,-0.07629,-0.02292,0.68118
1746364583.9263391,2.342,-1.633,6.804,-19.682,-1.692,95.817,0.72769,-0.07629,-0.02292,0.68118
1746364583.9536896,2.452,-1.489,7.982,-20.078,-1.423,95.471,0.72769,-0.07629,-0.02292,0.68118
1746364583.9543371,2.452,-1.489,7.982,-20.413,-1.165,95.043,0.72769,-0.07629,-0.02292,0.68118
1746364583.9553363,0.723,-2.533,7.192,-20.852,-0.786,94.482,0.66586,-0.11227,-0.13745,0.72458
1746364583.9563396,0.622,-3.74,6.191,-21.204,-0.5,93.988,0.66586,-0.11227,-0.13745,0.72458
1746364583.9563396,0.622,-3.74,6.191,-21.489,-0.297,93.576,0.66586,-0.11227,-0.13745,0.72458
1746364583.9576914,1.403,-2.346,8.921,-21.687,-0.154,93.219,0.66586,-0.11227,-0.13745,0.72458
1746364583.9583368,1.403,-2.346,8.921,-21.791,-0.066,92.911,0.66586,-0.11227,-0.13745,0.72458
1746364584.01599,0.986,-1.963,10.281,-21.962,0.088,92.565,0.66586,-0.11227,-0.13745,0.72458
1746364584.0179923,0.986,-1.963,10.281,-22.187,0.313,92.181,0.66586,-0.11227,-0.13745,0.72458
1746364584.0189893,-0.555,-2.423,9.907,-22.418,0.538,91.774,0.66586,-0.11227,-0.13745,0.72458
1746364584.0199888,-0.555,-2.423,9.907,-22.654,0.775,91.34,0.66586,-0.11227,-0.13745,0.72458
1746364584.0469916,-1.235,-3.486,9.309,-22.83,0.901,90.994,0.66586,-0.11227,-0.13745,0.72458
1746364584.147169,-1.235,-3.486,9.309,-22.956,0.928,90.731,0.66586,-0.11227,-0.13745,0.72458
1746364584.1481688,-0.383,-3.836,8.983,-23.011,0.939,90.478,0.66586,-0.11227,-0.13745,0.72458
1746364584.1491704,-0.383,-3.836,8.983,-23.011,0.939,90.231,0.66586,-0.11227,-0.13745,0.72458
1746364584.1491704,0.129,-3.29,9.438,-22.972,0.989,89.973,0.66586,-0.11227,-0.13745,0.72458
1746364584.1491704,0.129,-3.29,9.438,-22.896,1.082,89.692,0.66586,-0.11227,-0.13745,0.72458
1746364584.1501637,-0.225,-2.624,10.036,-22.802,1.208,89.379,0.69348,-0.14728,-0.13339,0.69247
1746364584.1511724,-0.225,-2.624,10.036,-22.687,1.357,89.033,0.69348,-0.14728,-0.13339,0.69247
1746364584.1511724,-1.097,-2.452,10.755,-22.577,1.489,88.715,0.69348,-0.14728,-0.13339,0.69247
1746364584.152169,-1.097,-2.452,10.755,-22.473,1.604,88.429,0.69348,-0.14728,-0.13339,0.69247
1746364584.152169,-1.14,-2.389,10.999,-22.418,1.697,88.154,0.69348,-0.14728,-0.13339,0.69247
1746364584.1531703,-1.14,-2.389,10.999,-22.418,1.78,87.896,0.69348,-0.14728,-0.13339,0.69247
1746364584.1650531,-1.59,-2.643,10.525,-22.462,1.862,87.61,0.69348,-0.14728,-0.13339,0.69247
1746364584.1660507,-1.59,-2.643,10.525,-22.555,1.945,87.308,0.69348,-0.14728,-0.13339,0.69247
1746364584.167052,-1.235,-3.285,9.811,-22.643,2.016,86.984,0.69348,-0.14728,-0.13339,0.69247
1746364584.167052,-1.235,-3.285,9.811,-22.736,2.065,86.633,0.69348,-0.14728,-0.13339,0.69247
1746364584.2264934,-0.517,-3.836,9.213,-22.813,2.109,86.298,0.69348,-0.14728,-0.13339,0.69247
1746364584.2278452,-0.517,-3.836,9.213,-22.885,2.148,85.974,0.69348,-0.14728,-0.13339,0.69247
1746364584.2284932,0.177,-3.907,8.887,-22.923,2.159,85.699,0.69348,-0.14728,-0.13339,0.69247
1746364584.2298584,0.177,-3.907,8.887,-22.939,2.148,85.463,0.69348,-0.14728,-0.13339,0.69247
1746364584.256815,0.192,-3.27,9.486,-22.923,2.126,85.248,0.69348,-0.14728,-0.13339,0.69247
1746364584.3020818,0.192,-3.27,9.486,-22.874,2.087,85.045,0.69348,-0.14728,-0.13339,0.69247
1746364584.3031032,-0.048,-2.993,9.73,-22.841,2.082,84.831,0.69348,-0.14728,-0.13339,0.69247
1746364584.3041248,-0.048,-2.993,9.73,-22.824,2.109,84.606,0.69348,-0.14728,-0.13339,0.69247
1746364584.3051014,-0.12,-2.825,10.094,-22.841,2.153,84.348,0.69348,-0.14728,-0.13339,0.69247
1746364584.3051014,-0.12,-2.825,10.094,-22.89,2.219,84.067,0.69348,-0.14728,-0.13339,0.69247
1746364584.3061016,0.311,-2.931,9.931,-22.95,2.285,83.787,0.69348,-0.14728,-0.13339,0.69247
1746364584.3061016,0.311,-2.931,9.931,-23.016,2.346,83.513,0.69348,-0.14728,-0.13339,0.69247
1746364584.3464947,0.034,-2.954,9.529,-23.093,2.384,83.271,0.69348,-0.14728,-0.13339,0.69247
1746364584.3484893,0.034,-2.954,9.529,-23.17,2.395,83.057,0.72983,-0.16348,-0.11774,0.65317
1746364584.3494916,-0.22,-3.309,9.131,-23.275,2.406,82.853,0.72983,-0.16348,-0.11774,0.65317
1746364584.3504968,-0.22,-3.309,9.131,-23.406,2.422,82.656,0.72983,-0.16348,-0.11774,0.65317
1746364584.3766851,-0.024,-3.333,9.246,-23.533,2.444,82.458,0.72983,-0.16348,-0.11774,0.65317
1746364584.4167945,-0.024,-3.333,9.246,-23.665,2.472,82.26,0.72983,-0.16348,-0.11774,0.65317
1746364584.4167945,-0.469,-3.673,8.696,-23.78,2.516,82.062,0.72983,-0.16348,-0.11774,0.65317
1746364584.4167945,-0.235,-1.834,4.348,-23.89,2.576,81.859,0.72983,-0.16348,-0.11774,0.65317
1746364584.4167945,-0.848,-4.334,8.04,-23.945,2.653,81.65,0.72983,-0.16348,-0.11774,0.65317
1746364584.4167945,-0.848,-4.334,8.04,-23.945,2.747,81.436,0.72983,-0.16348,-0.11774,0.65317
1746364584.4235885,-0.9,-3.448,9.069,-23.906,2.796,81.26,0.72983,-0.16348,-0.11774,0.65317
1746364584.4235885,-0.9,-3.448,9.069,-23.824,2.802,81.118,0.72983,-0.16348,-0.11774,0.65317
1746364584.4650466,-0.637,-3.17,9.797,-23.769,2.774,80.975,0.72983,-0.16348,-0.11774,0.65317
1746364584.4650466,-0.637,-3.17,9.797,-23.741,2.719,80.843,0.72983,-0.16348,-0.11774,0.65317
1746364584.4650466,-0.33,-3.505,9.491,-23.714,2.697,80.673,0.72983,-0.16348,-0.11774,0.65317
1746364584.4650466,-0.33,-3.505,9.491,-23.687,2.697,80.458,0.72983,-0.16348,-0.11774,0.65317
1746364584.4967988,-0.244,-3.577,9.151,-23.692,2.747,80.233,0.74445,-0.17157,-0.11469,0.63492
1746364584.5518582,-0.244,-3.577,9.151,-23.719,2.834,80.002,0.74445,-0.17157,-0.11469,0.63492
1746364584.5538661,-0.9,-4.104,8.432,-23.78,2.922,79.794,0.74445,-0.17157,-0.11469,0.63492
1746364584.5548656,-0.9,-4.104,8.432,-23.879,3.01,79.618,0.74445,-0.17157,-0.11469,0.63492
1746364584.5558622,-0.737,-4.199,8.533,-23.923,3.076,79.464,0.74445,-0.17157,-0.11469,0.63492
1746364584.5568638,-0.737,-4.199,8.533,-23.923,3.12,79.327,0.74445,-0.17157,-0.11469,0.63492
1746364584.5578616,-0.393,-3.97,8.801,-23.901,3.181,79.167,0.74445,-0.17157,-0.11469,0.63492
1746364584.5588648,-0.393,-3.97,8.801,-23.851,3.268,78.986,0.74445,-0.17157,-0.11469,0.63492
1746364584.5873516,-0.603,-3.309,9.62,-23.785,3.362,78.799,0.74445,-0.17157,-0.11469,0.63492
1746364584.5882523,-0.603,-3.309,9.62,-23.698,3.455,78.613,0.74445,-0.17157,-0.11469,0.63492
1746364584.5892498,-0.757,-2.926,10.07,-23.654,3.538,78.437,0.74445,-0.17157,-0.11469,0.63492
1746364584.5902536,-0.757,-2.926,10.07,-23.637,3.604,78.267,0.74445,-0.17157,-0.11469,0.63492
1746364584.6168628,-0.723,-3.266,9.759,-23.637,3.642,78.107,0.74445,-0.17157,-0.11469,0.63492
1746364584.630902,-0.723,-3.266,9.759,-23.643,3.647,77.953,0.74445,-0.17157,-0.11469,0.63492
1746364584.6316237,-0.642,-3.519,9.318,-23.665,3.675,77.8,0.74445,-0.17157,-0.11469,0.63492
1746364584.6316237,-0.642,-3.519,9.318,-23.692,3.719,77.651,0.75748,-0.17947,-0.10406,0.61893
