timestamp,AccX,AccY,AccZ,AngX,AngY,AngZ,AsX,AsY,AsZ,Q0,Q1,Q2,Q3
1746448582.317777,1.13,1.269,10.017,7.57,-6.68,-29.564,0.96399,0.05209,-0.07428,-0.24979
1746448582.317777,1.221,1.255,9.941,7.564,-6.685,-29.553,0.96399,0.05209,-0.07428,-0.24979
1746448582.3187757,1.221,1.255,9.941,7.548,-6.696,-29.548,0.96399,0.05209,-0.07428,-0.24979
1746448582.3187757,1.202,1.417,9.855,7.52,-6.702,-29.548,0.96399,0.05209,-0.07428,-0.24979
1746448582.3785982,1.202,1.417,9.855,7.482,-6.713,-29.542,0.96399,0.05209,-0.07428,-0.24979
1746448582.4076002,1.168,1.446,9.826,7.476,-6.718,-29.531,0.96399,0.05209,-0.07428,-0.24979
1746448582.4082496,1.168,1.446,9.826,7.493,-6.713,-29.504,0.96399,0.05209,-0.07428,-0.24979
1746448582.409253,1.144,1.259,10.036,7.504,-6.707,-29.476,0.96426,0.04828,-0.07309,-0.24988
1746448582.410249,1.144,1.259,10.036,7.52,-6.702,-29.438,0.96426,0.04828,-0.07309,-0.24988
1746448582.4122498,1.197,1.226,9.907,7.515,-6.702,-29.421,0.96426,0.04828,-0.07309,-0.24988
1746448582.4132485,1.197,1.226,9.907,7.493,-6.707,-29.41,0.96426,0.04828,-0.07309,-0.24988
1746448582.4142456,1.154,1.279,9.816,7.482,-6.707,-29.405,0.96426,0.04828,-0.07309,-0.24988
1746448582.437263,1.154,1.279,9.816,7.493,-6.696,-29.405,0.96426,0.04828,-0.07309,-0.24988
1746448582.438263,1.092,1.245,10.022,7.509,-6.696,-29.405,0.96426,0.04828,-0.07309,-0.24988
1746448582.439264,1.092,1.245,10.022,7.526,-6.696,-29.41,0.96426,0.04828,-0.07309,-0.24988
1746448582.439264,1.154,1.283,9.859,7.526,-6.702,-29.416,0.96426,0.04828,-0.07309,-0.24988
1746448582.4673197,1.154,1.283,9.859,7.509,-6.718,-29.427,0.96426,0.04828,-0.07309,-0.24988
1746448582.4683242,1.235,1.274,9.792,7.482,-6.74,-29.438,0.96426,0.04828,-0.07309,-0.24988
1746448582.4683242,1.235,1.274,9.792,7.443,-6.762,-29.454,0.96426,0.04828,-0.07309,-0.24988
1746448582.4693196,1.231,1.417,9.591,7.416,-6.773,-29.46,0.96426,0.04828,-0.07309,-0.24988
1746448582.4980514,1.231,1.417,9.591,7.399,-6.784,-29.46,0.96426,0.04828,-0.07309,-0.24988
1746448582.5462992,1.255,1.269,9.711,7.372,-6.784,-29.449,0.96426,0.04828,-0.07309,-0.24988
1746448582.5472937,1.255,1.269,9.711,7.333,-6.784,-29.432,0.96426,0.04828,-0.07309,-0.24988
1746448582.5482957,1.216,1.317,9.653,7.295,-6.773,-29.416,0.96426,0.04828,-0.07309,-0.24988
1746448582.5573714,1.216,1.317,9.653,7.256,-6.757,-29.399,0.96426,0.04828,-0.07309,-0.24988
1746448582.5583725,1.207,1.211,9.811,7.229,-6.735,-29.377,0.96457,0.04605,-0.07281,-0.24911
1746448582.5593734,1.207,1.211,9.811,7.202,-6.707,-29.344,0.96457,0.04605,-0.07281,-0.24911
1746448582.5603726,1.116,1.178,9.936,7.185,-6.68,-29.317,0.96457,0.04605,-0.07281,-0.24911
1746448582.6178176,1.116,1.178,9.936,7.174,-6.658,-29.295,0.96457,0.04605,-0.07281,-0.24911
1746448582.6698737,1.087,1.101,10.132,7.169,-6.641,-29.279,0.96457,0.04605,-0.07281,-0.24911
1746448582.6708732,1.087,1.101,10.132,7.163,-6.636,-29.273,0.96457,0.04605,-0.07281,-0.24911
1746448582.6718714,1.14,1.077,10.036,7.147,-6.63,-29.268,0.96457,0.04605,-0.07281,-0.24911
1746448582.6728754,1.14,1.077,10.036,7.119,-6.636,-29.273,0.96457,0.04605,-0.07281,-0.24911
1746448582.6738722,1.211,1.101,9.96,7.092,-6.647,-29.284,0.96457,0.04605,-0.07281,-0.24911
1746448582.6738722,1.211,1.101,9.96,7.064,-6.652,-29.301,0.96457,0.04605,-0.07281,-0.24911
1746448582.6748712,1.221,1.197,9.859,7.042,-6.658,-29.317,0.96457,0.04605,-0.07281,-0.24911
1746448582.6778705,1.221,1.197,9.859,7.037,-6.658,-29.333,0.96457,0.04605,-0.07281,-0.24911
1746448582.6788712,1.231,1.283,9.797,7.031,-6.652,-29.339,0.96457,0.04605,-0.07281,-0.24911
1746448582.6798713,1.231,1.283,9.797,7.031,-6.641,-29.344,0.96457,0.04605,-0.07281,-0.24911
1746448582.6808715,1.168,1.211,10.051,7.031,-6.63,-29.344,0.96457,0.04605,-0.07281,-0.24911
1746448582.7078707,1.168,1.211,10.051,7.031,-6.619,-29.344,0.96457,0.04605,-0.07281,-0.24911
1746448582.7088673,1.207,1.211,9.869,7.015,-6.614,-29.344,0.96457,0.04605,-0.07281,-0.24911
1746448582.709867,1.207,1.211,9.869,6.993,-6.614,-29.344,0.96457,0.04605,-0.07281,-0.24911
1746448582.7108698,1.216,1.183,9.855,6.976,-6.603,-29.35,0.96457,0.04605,-0.07281,-0.24911
1746448582.737167,1.216,1.183,9.855,6.965,-6.586,-29.355,0.96457,0.04605,-0.07281,-0.24911
1746448582.7550414,1.164,1.188,10.013,6.949,-6.57,-29.355,0.96457,0.04605,-0.07281,-0.24911
1746448582.7560365,1.164,1.188,10.013,6.927,-6.548,-29.361,0.96481,0.04404,-0.07068,-0.24915
1746448582.7560365,1.125,1.183,9.965,6.894,-6.531,-29.361,0.96481,0.04404,-0.07068,-0.24915
1746448582.7975352,1.125,1.183,9.965,6.855,-6.515,-29.361,0.96481,0.04404,-0.07068,-0.24915
1746448582.7985349,1.01,1.116,10.166,6.833,-6.498,-29.366,0.96481,0.04404,-0.07068,-0.24915
1746448582.799533,1.01,1.116,10.166,6.817,-6.487,-29.377,0.96481,0.04404,-0.07068,-0.24915
1746448582.8005328,1.006,1.192,10.046,6.806,-6.482,-29.388,0.96481,0.04404,-0.07068,-0.24915
1746448582.8277044,1.006,1.192,10.046,6.79,-6.487,-29.399,0.96481,0.04404,-0.07068,-0.24915
1746448582.8287127,1.058,1.283,9.898,6.784,-6.498,-29.405,0.96481,0.04404,-0.07068,-0.24915
1746448582.8297048,1.058,1.283,9.898,6.784,-6.504,-29.41,0.96481,0.04404,-0.07068,-0.24915
1746448582.8307033,1.135,1.312,9.74,6.79,-6.504,-29.41,0.96481,0.04404,-0.07068,-0.24915
1746448582.85758,1.135,1.312,9.74,6.806,-6.498,-29.405,0.96481,0.04404,-0.07068,-0.24915
1746448582.9741194,1.135,1.255,9.869,6.812,-6.493,-29.399,0.96481,0.04404,-0.07068,-0.24915
1746448582.990118,1.135,1.255,9.869,6.806,-6.487,-29.399,0.96481,0.04404,-0.07068,-0.24915
1746448582.9911313,1.188,1.24,9.697,6.795,-6.476,-29.394,0.96481,0.04404,-0.07068,-0.24915
1746448582.9911313,1.188,1.24,9.697,6.784,-6.471,-29.394,0.96481,0.04404,-0.07068,-0.24915
1746448582.9921277,1.226,1.154,9.692,6.773,-6.46,-29.377,0.96484,0.04282,-0.06949,-0.2496
1746448582.9921277,1.226,1.154,9.692,6.773,-6.438,-29.361,0.96484,0.04282,-0.06949,-0.2496
1746448582.9931252,1.077,1.211,9.792,6.768,-6.411,-29.344,0.96484,0.04282,-0.06949,-0.2496
1746448582.9941196,1.077,1.211,9.792,6.751,-6.383,-29.333,0.96484,0.04282,-0.06949,-0.2496
1746448582.9941196,1.101,1.178,10.046,6.724,-6.356,-29.333,0.96484,0.04282,-0.06949,-0.2496
1746448582.9951262,1.101,1.178,10.046,6.674,-6.334,-29.344,0.96484,0.04282,-0.06949,-0.2496
1746448582.9951262,1.144,1.422,10.036,6.63,-6.306,-29.35,0.96484,0.04282,-0.06949,-0.2496
1746448582.9961233,1.144,1.422,10.036,6.581,-6.284,-29.355,0.96484,0.04282,-0.06949,-0.2496
1746448582.9971232,1.336,1.398,10.482,6.548,-6.262,-29.35,0.96484,0.04282,-0.06949,-0.2496
1746448582.9971232,1.336,1.398,10.482,6.52,-6.24,-29.339,0.96484,0.04282,-0.06949,-0.2496
1746448582.9981277,1.547,1.623,11.214,6.476,-6.213,-29.323,0.96484,0.04282,-0.06949,-0.2496
1746448583.0373254,1.547,1.623,11.214,6.416,-6.185,-29.301,0.96484,0.04282,-0.06949,-0.2496
1746448583.0383246,1.748,2.025,12.684,6.328,-6.158,-29.29,0.96484,0.04282,-0.06949,-0.2496
1746448583.03932,1.748,2.025,12.684,6.213,-6.136,-29.29,0.96484,0.04282,-0.06949,-0.2496
1746448583.0403252,2.054,2.217,14.217,6.108,-6.136,-29.301,0.96484,0.04282,-0.06949,-0.2496
1746448583.0678213,8.217,8.868,56.872,6.026,-6.147,-29.333,0.96484,0.04282,-0.06949,-0.2496
1746448583.0688248,1.949,2.069,16.525,5.949,-6.196,-29.388,0.96484,0.04282,-0.06949,-0.2496
1746448583.0698264,1.949,2.069,16.525,5.878,-6.29,-29.471,0.96484,0.04282,-0.06949,-0.2496
1746448583.070822,1.762,1.805,18.076,5.795,-6.449,-29.586,0.96484,0.04282,-0.06949,-0.2496
1746448583.127153,1.762,1.805,18.076,5.702,-6.685,-29.729,0.96484,0.04282,-0.06949,-0.2496
1746448583.182681,1.274,1.561,18.828,5.724,-7.009,-29.85,0.96484,0.04282,-0.06949,-0.2496
1746448583.1836846,1.274,1.561,18.828,5.861,-7.416,-29.949,0.96484,0.04282,-0.06949,-0.2496
1746448583.1856785,0.828,0.814,18.713,6.163,-7.921,-29.998,0.96484,0.04282,-0.06949,-0.2496
1746448583.1866815,0.828,0.814,18.713,6.619,-8.531,-29.998,0.96484,0.04282,-0.06949,-0.2496
1746448583.1880362,0.814,-0.048,16.889,7.169,-9.245,-29.982,0.96484,0.04282,-0.06949,-0.2496
1746448583.1886814,0.814,-0.048,16.889,7.806,-10.063,-29.943,0.96484,0.04282,-0.06949,-0.2496
1746448583.1900368,1.068,-0.838,14.633,8.454,-10.953,-29.921,0.96484,0.04282,-0.06949,-0.2496
1746448583.190681,1.068,-0.838,14.633,9.113,-11.904,-29.921,0.96085,0.0463,-0.1109,-0.24948
1746448583.1920364,1.063,-1.307,12.402,9.728,-12.892,-29.976,0.96085,0.0463,-0.1109,-0.24948
1746448583.1926816,1.063,-1.307,12.402,10.3,-13.914,-30.103,0.96085,0.0463,-0.1109,-0.24948
1746448583.1946812,1.25,-1.743,9.543,10.838,-14.941,-30.273,0.96085,0.0463,-0.1109,-0.24948
1746448583.2174282,1.25,-1.743,9.543,11.332,-15.974,-30.493,0.96085,0.0463,-0.1109,-0.24948
1746448583.2190764,1.36,-1.753,6.771,11.865,-16.957,-30.74,0.96085,0.0463,-0.1109,-0.24948
1746448583.2200756,1.36,-1.753,6.771,12.431,-17.897,-31.003,0.96085,0.0463,-0.1109,-0.24948
1746448583.2210786,1.542,-1.772,5.239,13.046,-18.759,-31.344,0.96085,0.0463,-0.1109,-0.24948
1746448583.2783344,1.542,-1.772,5.239,13.705,-19.556,-31.761,0.96085,0.0463,-0.1109,-0.24948
1746448583.33837,1.891,-1.867,3.725,14.315,-20.286,-32.239,0.96085,0.0463,-0.1109,-0.24948
1746448583.3393524,1.891,-1.867,3.725,14.875,-20.962,-32.778,0.96085,0.0463,-0.1109,-0.24948
1746448583.3403516,1.781,-0.939,2.662,15.414,-21.588,-33.371,0.96085,0.0463,-0.1109,-0.24948
1746448583.3413577,1.781,-0.939,2.662,15.925,-22.17,-34.025,0.96085,0.0463,-0.1109,-0.24948
1746448583.3424296,2.217,-0.139,0.824,16.403,-22.681,-34.684,0.96085,0.0463,-0.1109,-0.24948
1746448583.343424,2.217,-0.139,0.824,16.837,-23.126,-35.349,0.96085,0.0463,-0.1109,-0.24948
1746448583.3444242,2.6,0.378,0.0,17.221,-23.5,-36.013,0.96085,0.0463,-0.1109,-0.24948
1746448583.3454268,2.6,0.378,0.0,17.545,-23.796,-36.672,0.96085,0.0463,-0.1109,-0.24948
1746448583.3464346,2.897,0.048,-1.068,17.688,-23.95,-37.337,0.96085,0.0463,-0.1109,-0.24948
1746448583.3464346,2.897,0.048,-1.068,17.831,-24.126,-37.985,0.96085,0.0463,-0.1109,-0.24948
1746448583.348427,3.002,0.397,-2.193,17.847,-24.109,-38.606,0.96085,0.0463,-0.1109,-0.24948
1746448583.3985949,3.002,0.397,-2.193,17.869,-24.131,-39.166,0.96085,0.0463,-0.1109,-0.24948
1746448583.4274218,2.768,1.221,-2.351,17.726,-23.967,-39.551,0.96085,0.0463,-0.1109,-0.24948
1746448583.4284258,2.768,1.221,-2.351,17.639,-23.851,-39.803,0.96085,0.0463,-0.1109,-0.24948
1746448583.4304228,2.433,2.073,-2.054,17.336,-23.549,-39.908,0.96085,0.0463,-0.1109,-0.24948
1746448583.431424,2.433,2.073,-2.054,17.089,-23.258,-40.001,0.9201,0.06982,-0.23996,-0.30136
1746448583.4324272,1.887,2.849,-1.915,16.666,-22.786,-40.023,0.9201,0.06982,-0.23996,-0.30136
1746448583.4344218,1.887,2.849,-1.915,16.287,-22.313,-40.084,0.9201,0.06982,-0.23996,-0.30136
1746448583.4354253,1.882,2.318,-1.877,15.787,-21.671,-40.04,0.9201,0.06982,-0.23996,-0.30136
1746448583.486299,1.882,2.318,-1.877,15.326,-21.028,-40.023,0.9201,0.06982,-0.23996,-0.30136
1746448583.487299,2.337,0.441,-2.207,14.639,-20.165,-39.968,0.9201,0.06982,-0.23996,-0.30136
1746448583.4883018,2.337,0.441,-2.207,13.986,-19.325,-39.924,0.9201,0.06982,-0.23996,-0.30136
1746448583.4883018,1.906,-1.221,-1.815,13.145,-18.16,-39.941,0.9201,0.06982,-0.23996,-0.30136
1746448583.5173,1.906,-1.221,-1.815,12.316,-17.023,-39.968,0.9201,0.06982,-0.23996,-0.30136
1746448583.5528362,0.192,0.144,1.183,11.431,-15.623,-40.001,0.9201,0.06982,-0.23996,-0.30136
1746448583.553835,0.192,0.144,1.183,10.53,-14.222,-40.045,0.9201,0.06982,-0.23996,-0.30136
1746448583.553835,-1.245,0.532,6.91,9.498,-12.744,-39.913,0.9201,0.06982,-0.23996,-0.30136
1746448583.5548365,-1.245,0.532,6.91,8.355,-11.223,-39.853,0.9201,0.06982,-0.23996,-0.30136
1746448583.5548365,-1.283,-0.45,10.539,6.949,-9.668,-39.924,0.9201,0.06982,-0.23996,-0.30136
1746448583.5558307,-1.283,-0.45,10.539,5.499,-8.064,-40.122,0.9201,0.06982,-0.23996,-0.30136
1746448583.55683,-2.155,-1.02,16.64,4.142,-6.295,-40.435,0.9201,0.06982,-0.23996,-0.30136
1746448583.637463,-2.155,-1.02,16.64,2.774,-4.515,-40.814,0.9201,0.06982,-0.23996,-0.30136
1746448583.665344,-3.136,0.287,24.368,1.796,-2.769,-41.193,0.9201,0.06982,-0.23996,-0.30136
1746448583.6673431,-3.136,0.287,24.368,0.813,-1.022,-41.594,0.9201,0.06982,-0.23996,-0.30136
1746448583.6683443,-3.285,2.121,30.914,0.264,0.154,-41.858,0.9201,0.06982,-0.23996,-0.30136
1746448583.6693463,-3.285,2.121,30.914,-0.28,1.329,-42.116,0.93356,0.00223,0.00607,-0.35825
1746448583.6703436,-3.749,3.563,35.65,-0.357,2.027,-42.166,0.93356,0.00223,0.00607,-0.35825
1746448583.6723442,-3.749,3.563,35.65,-0.428,2.719,-42.204,0.93356,0.00223,0.00607,-0.35825
1746448583.673349,-5.004,3.28,37.369,-0.137,2.829,-42.122,0.93356,0.00223,0.00607,-0.35825
1746448583.6743488,-5.004,3.28,37.369,0.143,2.939,-42.034,0.93356,0.00223,0.00607,-0.35825
1746448583.6753488,-6.306,2.562,35.635,0.61,2.444,-41.841,0.93356,0.00223,0.00607,-0.35825
1746448583.6763496,-6.306,2.562,35.635,1.066,1.956,-41.655,0.93356,0.00223,0.00607,-0.35825
1746448583.6773484,-6.005,1.901,30.009,1.659,0.873,-41.347,0.93356,0.00223,0.00607,-0.35825
1746448583.7271445,-6.005,1.901,30.009,2.247,-0.198,-41.05,0.93356,0.00223,0.00607,-0.35825
1746448583.7292533,-3.505,-0.01,22.491,3.032,-1.648,-40.666,0.93356,0.00223,0.00607,-0.35825
1746448583.7301655,-3.505,-0.01,22.491,3.796,-3.087,-40.314,0.93356,0.00223,0.00607,-0.35825
1746448583.7321727,-1.097,-1.393,16.659,4.658,-4.697,-39.979,0.93356,0.00223,0.00607,-0.35825
1746448583.7573793,-1.097,-1.393,16.659,5.504,-6.301,-39.683,0.93356,0.00223,0.00607,-0.35825
1746448583.8143606,0.699,-3.864,11.612,6.284,-7.965,-39.501,0.93356,0.00223,0.00607,-0.35825
1746448583.815364,0.699,-3.864,11.612,7.048,-9.619,-39.353,0.93356,0.00223,0.00607,-0.35825
1746448583.8173597,1.719,-5.109,8.432,7.74,-11.124,-39.474,0.93356,0.00223,0.00607,-0.35825
1746448583.8173597,1.719,-5.109,8.432,8.421,-12.618,-39.622,0.93356,0.00223,0.00607,-0.35825
1746448583.8183613,1.618,-4.803,7.91,8.954,-14.008,-39.853,0.93356,0.00223,0.00607,-0.35825
1746448583.819361,1.618,-4.803,7.91,9.487,-15.386,-40.106,0.9325,0.03131,-0.14706,-0.32825
1746448583.8203602,-0.168,-4.041,7.494,9.998,-16.804,-40.611,0.9325,0.03131,-0.14706,-0.32825
1746448583.8477118,-0.168,-4.041,7.494,10.519,-18.204,-41.144,0.9325,0.03131,-0.14706,-0.32825
1746448583.8477118,0.512,-2.94,3.893,11.239,-19.523,-41.759,0.9325,0.03131,-0.14706,-0.32825
1746448583.8487062,0.512,-2.94,3.893,11.975,-20.825,-42.407,0.9325,0.03131,-0.14706,-0.32825
1746448583.8497038,0.359,-2.82,2.634,12.942,-22.017,-42.99,0.9325,0.03131,-0.14706,-0.32825
1746448583.877509,0.359,-2.82,2.634,13.925,-23.192,-43.616,0.9325,0.03131,-0.14706,-0.32825
1746448583.9345193,0.958,-2.907,-0.043,14.722,-24.186,-44.33,0.9325,0.03131,-0.14706,-0.32825
1746448583.9355197,0.958,-2.907,-0.043,15.529,-25.164,-45.071,0.9325,0.03131,-0.14706,-0.32825
1746448583.9365182,1.796,-2.059,-2.94,16.089,-25.807,-45.989,0.9325,0.03131,-0.14706,-0.32825
1746448583.9375246,1.796,-2.059,-2.94,16.655,-26.439,-46.934,0.9325,0.03131,-0.14706,-0.32825
1746448583.9375246,2.346,-0.919,-3.85,17.045,-26.735,-47.856,0.9325,0.03131,-0.14706,-0.32825
1746448583.9385178,2.346,-0.919,-3.85,17.419,-27.032,-48.796,0.9325,0.03131,-0.14706,-0.32825
1746448583.939517,2.394,-0.043,-3.898,17.589,-27.087,-49.763,0.9325,0.03131,-0.14706,-0.32825
1746448583.9672039,2.394,-0.043,-3.898,17.737,-27.153,-50.751,0.9325,0.03131,-0.14706,-0.32825
1746448583.9692025,2.6,1.164,-4.645,17.655,-27.048,-51.79,0.9325,0.03131,-0.14706,-0.32825
1746448583.970208,2.6,1.164,-4.645,17.551,-26.955,-52.888,0.9325,0.03131,-0.14706,-0.32825
1746448583.9712105,2.801,2.629,-5.387,17.227,-26.565,-53.981,0.9325,0.03131,-0.14706,-0.32825
1746448583.9978688,2.801,2.629,-5.387,17.408,-26.548,-54.119,0.9325,0.03131,-0.14706,-0.32825
1746448584.0258765,2.313,3.323,-4.63,17.573,-26.235,-54.212,0.9325,0.03131,-0.14706,-0.32825
1746448584.0268743,2.313,3.323,-4.63,17.814,-25.906,-54.415,0.9325,0.03131,-0.14706,-0.32825
1746448584.0278707,1.753,2.806,-3.606,17.897,-25.329,-54.547,0.87219,0.03424,-0.26401,-0.41028
1746448584.0288758,1.753,2.806,-3.606,18.007,-24.736,-54.723,0.87219,0.03424,-0.26401,-0.41028
1746448584.0308945,1.528,2.725,-2.82,17.842,-23.912,-54.827,0.87219,0.03424,-0.26401,-0.41028
1746448584.031892,1.528,2.725,-2.82,17.688,-23.071,-54.954,0.87219,0.03424,-0.26401,-0.41028
1746448584.0329027,0.953,1.973,-2.155,17.21,-21.984,-55.025,0.87219,0.03424,-0.26401,-0.41028
1746448584.0868132,0.953,1.973,-2.155,16.738,-20.891,-55.113,0.87219,0.03424,-0.26401,-0.41028
1746448584.0888088,0.134,0.57,-0.747,16.089,-19.578,-55.113,0.87219,0.03424,-0.26401,-0.41028
1746448584.089807,0.067,0.283,-0.373,15.447,-18.27,-55.124,0.87219,0.03424,-0.26401,-0.41028
1746448584.089807,-0.455,-0.551,1.446,14.573,-16.798,-55.113,0.87219,0.03424,-0.26401,-0.41028
1746448584.1177866,-0.455,-0.551,1.446,13.694,-15.331,-55.107,0.87219,0.03424,-0.26401,-0.41028
1746448584.1789727,-1.097,-2.054,3.754,12.623,-13.689,-55.085,0.87219,0.03424,-0.26401,-0.41028
1746448584.1809735,-1.097,-2.054,3.754,11.459,-12.068,-54.998,0.87219,0.03424,-0.26401,-0.41028
1746448584.1819758,-1.724,-1.992,6.699,10.025,-10.234,-54.866,0.88354,0.03842,-0.12912,-0.44843
1746448584.1839733,-1.724,-1.992,6.699,8.443,-8.267,-55.036,0.88354,0.03842,-0.12912,-0.44843
1746448584.1849759,-3.567,-3.309,12.991,7.213,-6.114,-55.179,0.88354,0.03842,-0.12912,-0.44843
1746448584.1859763,-3.567,-3.309,12.991,5.988,-3.95,-55.371,0.88354,0.03842,-0.12912,-0.44843
1746448584.1869793,-3.697,-3.405,19.034,4.691,-1.989,-55.783,0.88354,0.03842,-0.12912,-0.44843
1746448584.2078907,-3.697,-3.405,19.034,3.389,-0.044,-56.234,0.88354,0.03842,-0.12912,-0.44843
1746448584.2088914,-2.212,-1.676,23.99,2.274,1.708,-56.722,0.88354,0.03842,-0.12912,-0.44843
1746448584.2098913,-2.212,-1.676,23.99,1.159,3.439,-57.233,0.88354,0.03842,-0.12912,-0.44843
1746448584.2108915,-1.839,-1.595,29.42,0.637,4.905,-57.623,0.88354,0.03842,-0.12912,-0.44843
1746448584.237931,-1.839,-1.595,29.42,0.11,6.35,-58.013,0.88354,0.03842,-0.12912,-0.44843
1746448584.2922714,-2.907,-1.973,33.945,0.11,7.421,-58.376,0.88354,0.03842,-0.12912,-0.44843
1746448584.294262,-2.907,-1.973,33.945,0.104,8.481,-58.727,0.88354,0.03842,-0.12912,-0.44843
1746448584.294262,-5.564,-0.215,37.302,0.379,8.976,-59.128,0.88354,0.03842,-0.12912,-0.44843
1746448584.2952669,-5.564,-0.215,37.302,0.648,9.47,-59.513,0.88354,0.03842,-0.12912,-0.44843
1746448584.2962708,-6.282,1.824,35.525,1.154,9.278,-59.848,0.88354,0.03842,-0.12912,-0.44843
1746448584.2962708,-6.282,1.824,35.525,1.659,9.091,-60.183,0.88354,0.03842,-0.12912,-0.44843
1746448584.297264,-6.445,3.06,32.317,2.466,8.295,-60.364,0.88354,0.03842,-0.12912,-0.44843
1746448584.3272662,-6.445,3.06,32.317,3.274,7.509,-60.562,0.88354,0.03842,-0.12912,-0.44843
1746448584.3292673,-5.258,2.667,27.471,4.197,6.218,-60.683,0.88354,0.03842,-0.12912,-0.44843
1746448584.3302703,-5.258,2.667,27.471,5.12,4.933,-60.826,0.88354,0.03842,-0.12912,-0.44843
1746448584.3312898,-2.844,0.943,21.562,6.059,3.356,-60.925,0.88354,0.03842,-0.12912,-0.44843
1746448584.3581822,-2.844,0.943,21.562,6.998,1.791,-61.057,0.88354,0.03842,-0.12912,-0.44843
1746448584.3883119,-1.729,-1.437,17.032,8.009,0.099,-61.216,0.88354,0.03842,-0.12912,-0.44843
1746448584.389184,-1.729,-1.437,17.032,9.014,-1.571,-61.414,0.88354,0.03842,-0.12912,-0.44843
1746448584.3901806,-2.035,-2.868,13.168,10.14,-3.274,-61.677,0.85754,0.06055,-0.05191,-0.50809
1746448584.3911798,-2.035,-2.868,13.168,11.266,-4.955,-61.99,0.85754,0.06055,-0.05191,-0.50809
1746448584.3921835,-2.595,-2.298,9.098,12.327,-6.581,-62.342,0.85754,0.06055,-0.05191,-0.50809
1746448584.393181,-2.595,-2.298,9.098,13.398,-8.19,-62.737,0.85754,0.06055,-0.05191,-0.50809
1746448584.3941817,-2.964,-2.519,5.636,14.414,-9.701,-63.083,0.85754,0.06055,-0.05191,-0.50809
1746448584.4481368,-2.964,-2.519,5.636,15.436,-11.201,-63.468,0.85754,0.06055,-0.05191,-0.50809
1746448584.4491382,-3.342,-3.63,2.677,16.221,-12.711,-63.907,0.85754,0.06055,-0.05191,-0.50809
1746448584.4511442,-3.342,-3.63,2.677,17.012,-14.194,-64.374,0.85754,0.06055,-0.05191,-0.50809
1746448584.4521403,-1.231,-3.831,-2.409,17.49,-15.557,-64.94,0.85754,0.06055,-0.05191,-0.50809
1746448584.4773278,-1.231,-3.831,-2.409,17.979,-16.902,-65.533,0.85754,0.06055,-0.05191,-0.50809
1746448584.5353298,0.919,-3.596,-5.871,18.38,-17.875,-66.143,0.85754,0.06055,-0.05191,-0.50809
1746448584.5363297,0.919,-3.596,-5.871,18.781,-18.836,-66.775,0.85754,0.06055,-0.05191,-0.50809
1746448584.5373333,2.179,-2.476,-7.302,19.133,-19.33,-67.44,0.85754,0.06055,-0.05191,-0.50809
1746448584.5383332,2.179,-2.476,-7.302,19.473,-19.814,-68.115,0.85754,0.06055,-0.05191,-0.50809
1746448584.5403297,2.528,-0.747,-7.216,19.671,-19.869,-68.802,0.85754,0.06055,-0.05191,-0.50809
1746448584.5413332,2.528,-0.747,-7.216,19.836,-19.913,-69.5,0.85754,0.06055,-0.05191,-0.50809
1746448584.5413332,2.782,0.474,-6.867,19.792,-19.611,-70.164,0.85754,0.06055,-0.05191,-0.50809
1746448584.567547,2.782,0.474,-6.867,19.688,-19.308,-70.856,0.85754,0.06055,-0.05191,-0.50809
1746448584.5685487,2.648,1.7,-5.856,19.352,-18.737,-71.499,0.85754,0.06055,-0.05191,-0.50809
1746448584.569546,2.648,1.7,-5.856,18.929,-18.166,-72.153,0.85754,0.06055,-0.05191,-0.50809
1746448584.5705423,2.653,2.931,-5.368,18.166,-17.386,-72.647,0.85754,0.06055,-0.05191,-0.50809
1746448584.5988789,2.653,2.931,-5.368,18.583,-17.029,-72.856,0.85754,0.06055,-0.05191,-0.50809
1746448584.626884,2.696,2.696,-4.511,18.743,-16.353,-73.054,0.85754,0.06055,-0.05191,-0.50809
1746448584.6278799,2.696,2.696,-4.511,18.891,-15.65,-73.251,0.85754,0.06055,-0.05191,-0.50809
1746448584.6298797,2.284,1.944,-4.185,18.748,-14.661,-73.488,0.79755,0.05032,-0.2048,-0.56509
1746448584.6308796,2.284,1.944,-4.185,18.605,-13.661,-73.724,0.79755,0.05032,-0.2048,-0.56509
1746448584.6308796,1.738,0.666,-3.974,18.298,-12.382,-73.861,0.79755,0.05032,-0.2048,-0.56509
1746448584.6318963,1.738,0.666,-3.974,17.99,-11.107,-74.004,0.79755,0.05032,-0.2048,-0.56509
1746448584.6328902,0.555,-0.369,-2.002,17.578,-9.553,-74.086,0.79755,0.05032,-0.2048,-0.56509
1746448584.688059,0.555,-0.369,-2.002,17.166,-8.004,-74.174,0.79755,0.05032,-0.2048,-0.56509
1746448584.689064,-0.977,-1.293,1.561,16.567,-6.279,-74.312,0.79755,0.05032,-0.2048,-0.56509
1746448584.6910584,-0.977,-1.293,1.561,15.963,-4.57,-74.449,0.79755,0.05032,-0.2048,-0.56509
1746448584.6920562,-1.791,-3.328,4.99,15.068,-2.829,-74.674,0.79755,0.05032,-0.2048,-0.56509
1746448584.7174706,-1.791,-3.328,4.99,12.92,-0.676,-75.289,0.79755,0.05032,-0.2048,-0.56509
1746448584.781899,-2.002,-3.658,7.144,10.904,1.494,-76.102,0.79755,0.05032,-0.2048,-0.56509
1746448584.7829006,-2.002,-3.658,7.144,8.992,3.571,-76.921,0.79755,0.05032,-0.2048,-0.56509
1746448584.783899,-3.227,-4.415,12.191,7.57,5.707,-77.596,0.79755,0.05032,-0.2048,-0.56509
1746448584.7849004,-3.227,-4.415,12.191,6.169,7.806,-78.289,0.79755,0.05032,-0.2048,-0.56509
1746448584.7858999,-5.028,-3.333,18.747,4.971,9.767,-79.036,0.79755,0.05032,-0.2048,-0.56509
1746448584.7879043,-5.028,-3.333,18.747,3.774,11.7,-79.799,0.7655,0.08749,0.03809,-0.63626
1746448584.7889102,-6.474,-1.125,25.149,2.818,13.475,-80.568,0.7655,0.08749,0.03809,-0.63626
1746448584.8069022,-6.474,-1.125,25.149,1.857,15.216,-81.354,0.7655,0.08749,0.03809,-0.63626
1746448584.8079026,-9.064,-0.172,31.781,1.115,16.551,-82.095,0.7655,0.08749,0.03809,-0.63626
1746448584.8089595,-9.064,-0.172,31.781,0.368,17.869,-82.842,0.7655,0.08749,0.03809,-0.63626
1746448584.8099954,-10.807,0.618,35.86,-0.148,18.682,-83.491,0.7655,0.08749,0.03809,-0.63626
1746448584.8376253,-10.807,0.618,35.86,-0.665,19.49,-84.133,0.7655,0.08749,0.03809,-0.63626
1746448584.8851788,-11.698,0.182,38.274,-0.698,19.66,-84.562,0.7655,0.08749,0.03809,-0.63626
1746448584.8861737,-11.698,0.182,38.274,-0.725,19.836,-84.979,0.7655,0.08749,0.03809,-0.63626
1746448584.8871796,-10.041,0.713,35.065,-0.368,19.292,-85.243,0.7655,0.08749,0.03809,-0.63626
1746448584.8966727,-10.041,0.713,35.065,-0.011,18.754,-85.507,0.7655,0.08749,0.03809,-0.63626
1746448584.8976727,-6.886,1.073,28.706,0.868,17.71,-85.562,0.7655,0.08749,0.03809,-0.63626
1746448584.8986683,-6.886,1.073,28.706,1.752,16.677,-85.627,0.7655,0.08749,0.03809,-0.63626
1746448584.8986683,-4.707,0.69,23.051,2.9,15.309,-85.6,0.7655,0.08749,0.03809,-0.63626
1746448584.927839,-4.707,0.69,23.051,4.037,13.953,-85.605,0.7655,0.08749,0.03809,-0.63626
1746448584.9294841,-3.615,-0.038,18.138,5.229,12.415,-85.633,0.7655,0.08749,0.03809,-0.63626
1746448584.930491,-3.615,-0.038,18.138,6.416,10.887,-85.704,0.7655,0.08749,0.03809,-0.63626
1746448584.9314866,-3.266,-1.264,13.939,7.614,9.272,-85.781,0.7655,0.08749,0.03809,-0.63626
1746448584.9574625,-3.266,-1.264,13.939,8.8,7.668,-85.902,0.7655,0.08749,0.03809,-0.63626
1746448584.995471,-3.486,-2.097,10.831,9.871,6.064,-86.144,0.7655,0.08749,0.03809,-0.63626
1746448584.9974678,-3.486,-2.097,10.831,10.937,4.477,-86.418,0.72302,0.09741,-0.0285,-0.68326
1746448584.9984727,-4.003,-1.489,8.495,11.799,2.851,-86.814,0.72302,0.09741,-0.0285,-0.68326
1746448585.0175507,-4.003,-1.489,8.495,12.667,1.241,-87.231,0.72302,0.09741,-0.0285,-0.68326
1746448585.018553,-3.883,-1.561,4.568,13.26,-0.368,-87.665,0.72302,0.09741,-0.0285,-0.68326
1746448585.0195549,-3.883,-1.561,4.568,13.865,-1.961,-88.116,0.72302,0.09741,-0.0285,-0.68326
1746448585.021562,-2.768,-1.283,0.163,14.431,-3.428,-88.495,0.72302,0.09741,-0.0285,-0.68326
1746448585.0480673,-2.768,-1.283,0.163,15.007,-4.872,-88.89,0.72302,0.09741,-0.0285,-0.68326
1746448585.0494246,-1.915,-1.125,-2.897,15.601,-6.108,-89.193,0.72302,0.09741,-0.0285,-0.68326
1746448585.050064,-1.915,-1.125,-2.897,16.194,-7.328,-89.506,0.72302,0.09741,-0.0285,-0.68326
1746448585.051422,-0.278,-0.876,-5.44,16.628,-8.229,-89.83,0.72302,0.09741,-0.0285,-0.68326
1746448585.1084518,-0.278,-0.876,-5.44,17.056,-9.113,-90.17,0.72302,0.09741,-0.0285,-0.68326
1746448585.158974,1.341,0.101,-7.053,17.32,-9.613,-90.549,0.72302,0.09741,-0.0285,-0.68326
1746448585.1599746,1.341,0.101,-7.053,17.584,-10.096,-90.934,0.72302,0.09741,-0.0285,-0.68326
1746448585.1609745,2.442,1.46,-7.815,17.721,-10.162,-91.241,0.72302,0.09741,-0.0285,-0.68326
1746448585.1669743,2.442,1.46,-7.815,17.853,-10.201,-91.538,0.72302,0.09741,-0.0285,-0.68326
1746448585.1689746,2.447,2.442,-6.747,17.781,-9.877,-91.719,0.72302,0.09741,-0.0285,-0.68326
1746448585.1689746,2.447,2.442,-6.747,17.776,-9.465,-91.884,0.72302,0.09741,-0.0285,-0.68326
1746448585.1699743,2.974,3.323,-6.45,17.831,-8.734,-92.076,0.72302,0.09741,-0.0285,-0.68326
1746448585.1978843,2.974,3.323,-6.45,18.155,-8.212,-92.269,0.69138,0.0556,-0.16284,-0.70163
1746448585.1988788,2.969,4.166,-5.89,18.276,-7.421,-92.302,0.69138,0.0556,-0.16284,-0.70163
1746448585.1999218,2.969,4.166,-5.89,18.397,-6.658,-92.302,0.69138,0.0556,-0.16284,-0.70163
1746448585.2012305,2.667,3.491,-4.913,18.215,-5.592,-92.148,0.69138,0.0556,-0.16284,-0.70163
1746448585.2018754,2.667,3.491,-4.913,18.04,-4.532,-91.983,0.69138,0.0556,-0.16284,-0.70163
1746448585.2038753,2.404,2.413,-3.539,17.589,-3.203,-91.741,0.69138,0.0556,-0.16284,-0.70163
1746448585.2038753,2.404,2.413,-3.539,17.144,-1.879,-91.494,0.69138,0.0556,-0.16284,-0.70163
1746448585.2058747,1.729,0.488,-2.102,16.556,-0.302,-91.148,0.69138,0.0556,-0.16284,-0.70163
1746448585.2573445,1.729,0.488,-2.102,15.985,1.258,-90.807,0.69138,0.0556,-0.16284,-0.70163
1746448585.3133454,0.996,-2.433,-0.8,15.244,3.098,-90.483,0.69138,0.0556,-0.16284,-0.70163
1746448585.3143556,0.996,-2.433,-0.8,14.524,4.911,-90.17,0.69138,0.0556,-0.16284,-0.70163
1746448585.3153553,-0.268,-5.296,2.351,14.013,6.96,-89.813,0.69138,0.0556,-0.16284,-0.70163
1746448585.3173413,-0.268,-5.296,2.351,13.519,8.965,-89.445,0.69138,0.0556,-0.16284,-0.70163
1746448585.3193452,-2.313,-5.157,6.828,11.942,11.266,-89.687,0.69138,0.0556,-0.16284,-0.70163
1746448585.3203406,-2.313,-5.157,6.828,10.459,13.546,-90.005,0.69138,0.0556,-0.16284,-0.70163
1746448585.3213427,-4.271,-5.502,10.721,9.152,15.842,-90.511,0.69138,0.0556,-0.16284,-0.70163
1746448585.324341,-4.271,-5.502,10.721,7.894,18.111,-91.005,0.69138,0.0556,-0.16284,-0.70163
1746448585.3253455,-7.69,-5.291,16.395,6.515,20.457,-91.73,0.69138,0.0556,-0.16284,-0.70163
1746448585.326341,-7.69,-5.291,16.395,5.12,22.775,-92.494,0.69138,0.0556,-0.16284,-0.70163
1746448585.3273413,-12.048,-4.539,25.34,4.065,24.862,-93.29,0.69138,0.0556,-0.16284,-0.70163
1746448585.378466,-12.048,-4.539,25.34,2.994,26.922,-94.114,0.69138,0.0556,-0.16284,-0.70163
1746448585.483996,-15.026,-2.883,33.595,2.291,28.416,-94.889,0.69138,0.0556,-0.16284,-0.70163
1746448585.5029948,-14.959,-1.101,37.35,1.73,29.476,-95.609,0.69138,0.0556,-0.16284,-0.70163
1746448585.5029948,-14.959,-1.101,37.35,1.318,30.114,-96.257,0.69138,0.0556,-0.16284,-0.70163
1746448585.504,-12.814,1.365,35.99,1.241,30.366,-96.768,0.64005,0.20215,0.16754,-0.72202
1746448585.5049968,-12.814,1.365,35.99,1.494,30.245,-97.125,0.64005,0.20215,0.16754,-0.72202
1746448585.5049968,-9.878,3.859,31.963,1.895,29.8,-97.405,0.64005,0.20215,0.16754,-0.72202
1746448585.5059974,-9.878,3.859,31.963,2.444,29.037,-97.625,0.64005,0.20215,0.16754,-0.72202
1746448585.5059974,-8.135,5.325,26.997,3.087,28.043,-97.784,0.64005,0.20215,0.16754,-0.72202
1746448585.5059974,-8.135,5.325,26.997,3.812,26.823,-97.894,0.64005,0.20215,0.16754,-0.72202
1746448585.5069973,-6.857,4.468,22.213,4.609,25.411,-97.949,0.64005,0.20215,0.16754,-0.72202
1746448585.5069973,-6.857,4.468,22.213,5.46,23.818,-97.96,0.64005,0.20215,0.16754,-0.72202
1746448585.507997,-5.78,1.743,17.583,6.295,22.104,-97.965,0.64005,0.20215,0.16754,-0.72202
1746448585.507997,-5.78,1.743,17.583,7.114,20.275,-97.965,0.64005,0.20215,0.16754,-0.72202
1746448585.5089972,-4.319,-0.843,13.264,7.767,18.43,-98.015,0.64005,0.20215,0.16754,-0.72202
1746448585.5089972,-4.319,-0.843,13.264,8.256,16.567,-98.097,0.64005,0.20215,0.16754,-0.72202
1746448585.5271537,-3.199,-1.628,10.209,8.679,14.788,-98.223,0.64005,0.20215,0.16754,-0.72202
1746448585.5281549,-3.199,-1.628,10.209,9.036,13.096,-98.377,0.64005,0.20215,0.16754,-0.72202
1746448585.5291502,-3.328,-2.365,9.639,9.569,11.453,-98.498,0.64005,0.20215,0.16754,-0.72202
1746448585.5291502,-3.328,-2.365,9.639,10.261,9.855,-98.597,0.64005,0.20215,0.16754,-0.72202
1746448585.5572252,-3.376,-2.998,8.188,10.97,8.234,-98.773,0.64005,0.20215,0.16754,-0.72202
1746448585.558224,-3.376,-2.998,8.188,11.695,6.592,-99.025,0.64005,0.20215,0.16754,-0.72202
1746448585.5602243,-2.184,-2.313,5.095,12.409,5.004,-99.322,0.64005,0.20215,0.16754,-0.72202
1746448585.5612237,-2.184,-2.313,5.095,13.112,3.477,-99.657,0.64005,0.20215,0.16754,-0.72202
1746448585.6179063,-1.494,-1.58,3.783,13.865,2.032,-100.009,0.64005,0.20215,0.16754,-0.72202
1746448585.6824737,-1.494,-1.58,3.783,14.667,0.681,-100.388,0.64005,0.20215,0.16754,-0.72202
1746448585.6834688,-0.713,-1.12,2.638,15.386,-0.593,-100.811,0.64005,0.20215,0.16754,-0.72202
1746448585.6844678,-0.713,-1.12,2.638,16.029,-1.807,-101.277,0.64005,0.20215,0.16754,-0.72202
1746448585.6858253,0.603,-0.637,0.148,16.573,-2.95,-101.766,0.64005,0.20215,0.16754,-0.72202
1746448585.686468,0.603,-0.637,0.148,17.029,-4.021,-102.272,0.64005,0.20215,0.16754,-0.72202
1746448585.6878266,1.614,0.029,-2.049,17.419,-4.966,-102.75,0.64005,0.20215,0.16754,-0.72202
1746448585.6884713,1.614,0.029,-2.049,17.737,-5.79,-103.2,0.64005,0.20215,0.16754,-0.72202
1746448585.6894693,2.763,1.891,-4.362,17.974,-6.449,-103.612,0.64005,0.20215,0.16754,-0.72202
1746448585.6904652,2.763,1.891,-4.362,18.144,-6.943,-103.991,0.64005,0.20215,0.16754,-0.72202
1746448585.6904652,3.869,2.734,-5.43,18.287,-7.3,-104.277,0.64005,0.20215,0.16754,-0.72202
1746448585.6918266,3.869,2.734,-5.43,18.413,-7.542,-104.464,0.64005,0.20215,0.16754,-0.72202
1746448585.7381089,4.64,2.03,-7.044,18.435,-7.652,-104.601,0.64005,0.20215,0.16754,-0.72202
1746448585.7687802,4.64,2.03,-7.044,18.402,-7.685,-104.65,0.64005,0.20215,0.16754,-0.72202
1746448585.7696571,4.788,0.838,-7.968,18.452,-7.542,-104.507,0.64005,0.20215,0.16754,-0.72202
1746448585.7706604,4.788,0.838,-7.968,18.561,-7.048,-104.332,0.64005,0.20215,0.16754,-0.72202
1746448585.7716634,4.199,0.177,-7.178,18.748,-6.29,-104.194,0.64005,0.20215,0.16754,-0.72202
1746448585.7726564,4.199,0.177,-7.178,18.962,-5.295,-104.073,0.64005,0.20215,0.16754,-0.72202
1746448585.7736611,3.457,-0.536,-5.756,19.094,-4.098,-103.986,0.64005,0.20215,0.16754,-0.72202
1746448585.7746649,3.457,-0.536,-5.756,19.138,-2.703,-103.914,0.61148,0.07428,-0.15234,-0.77283
1746448585.79771,2.504,-0.589,-4.415,19.083,-1.104,-103.859,0.61148,0.07428,-0.15234,-0.77283
1746448585.7997048,2.504,-0.589,-4.415,18.924,0.692,-103.821,0.61148,0.07428,-0.15234,-0.77283
1746448585.8007047,0.488,-0.354,-0.953,18.677,2.681,-103.815,0.61148,0.07428,-0.15234,-0.77283
1746448585.801706,0.488,-0.354,-0.953,18.336,4.856,-103.848,0.61148,0.07428,-0.15234,-0.77283
1746448585.8577101,-2.567,1.326,4.247,17.891,7.086,-103.909,0.61148,0.07428,-0.15234,-0.77283
1746448585.9217093,-2.567,1.326,4.247,17.325,9.377,-104.002,0.61148,0.07428,-0.15234,-0.77283
1746448585.9237132,-4.654,1.805,7.939,16.93,11.629,-103.942,0.61148,0.07428,-0.15234,-0.77283
1746448585.9247181,-4.654,1.805,7.939,16.617,13.821,-103.689,0.61148,0.07428,-0.15234,-0.77283
1746448585.9257178,-7.666,1.978,14.356,16.139,15.908,-103.508,0.61148,0.07428,-0.15234,-0.77283
1746448585.9277115,-7.666,1.978,14.356,15.699,17.968,-103.359,0.61148,0.07428,-0.15234,-0.77283
1746448585.9287088,-9.438,3.117,20.006,15.024,19.885,-103.282,0.61148,0.07428,-0.15234,-0.77283
1746448585.929716,-9.438,3.117,20.006,14.128,21.643,-103.277,0.61148,0.07428,-0.15234,-0.77283
1746448585.9307122,-9.419,2.002,22.63,13.271,23.187,-103.244,0.61148,0.07428,-0.15234,-0.77283
1746448585.9317126,-9.419,2.002,22.63,12.464,24.516,-103.173,0.61148,0.07428,-0.15234,-0.77283
1746448585.9327106,-9.438,0.934,25.058,11.865,25.582,-103.041,0.61148,0.07428,-0.15234,-0.77283
1746448585.9337263,-9.438,0.934,25.058,11.481,26.395,-102.843,0.61148,0.07428,-0.15234,-0.77283
1746448585.978327,-8.772,0.871,24.588,11.091,26.938,-102.706,0.61148,0.07428,-0.15234,-0.77283
1746448586.007326,-8.772,0.871,24.588,10.695,27.213,-102.623,0.61148,0.07428,-0.15234,-0.77283
1746448586.0083172,-6.905,0.996,21.849,10.322,27.307,-102.568,0.61148,0.07428,-0.15234,-0.77283
1746448586.009321,-6.905,0.996,21.849,9.981,27.219,-102.535,0.61148,0.07428,-0.15234,-0.77283
1746448586.009321,-5.488,0.498,19.532,9.701,27.004,-102.497,0.58978,0.23578,0.08066,-0.7681
1746448586.010319,-5.488,0.498,19.532,9.476,26.669,-102.453,0.58978,0.23578,0.08066,-0.7681
1746448586.0113227,-4.099,0.651,16.376,9.267,26.235,-102.442,0.58978,0.23578,0.08066,-0.7681
1746448586.0123186,-4.099,0.651,16.376,9.08,25.708,-102.448,0.58978,0.23578,0.08066,-0.7681
1746448586.0379121,-2.533,0.225,13.331,8.915,25.159,-102.458,0.58978,0.23578,0.08066,-0.7681
1746448586.0389104,-2.533,0.225,13.331,8.773,24.587,-102.475,0.58978,0.23578,0.08066,-0.7681
1746448586.0399168,-1.982,0.254,11.521,8.624,24.044,-102.519,0.58978,0.23578,0.08066,-0.7681
1746448586.040914,-1.982,0.254,11.521,8.465,23.511,-102.585,0.58978,0.23578,0.08066,-0.7681
1746448586.0980856,-1.417,0.067,9.673,8.333,23.005,-102.662,0.58978,0.23578,0.08066,-0.7681
1746448586.1641052,-1.417,0.067,9.673,8.229,22.516,-102.733,0.58978,0.23578,0.08066,-0.7681
1746448586.164744,-1.279,-0.11,8.643,8.201,22.077,-102.794,0.58978,0.23578,0.08066,-0.7681
1746448586.1657395,-1.279,-0.11,8.643,8.245,21.682,-102.843,0.58978,0.23578,0.08066,-0.7681
1746448586.166739,-1.441,-0.33,8.279,8.306,21.308,-102.892,0.58978,0.23578,0.08066,-0.7681
1746448586.167739,-1.441,-0.33,8.279,8.383,20.962,-102.936,0.58978,0.23578,0.08066,-0.7681
1746448586.168738,-1.192,-0.091,7.365,8.476,20.649,-102.953,0.58978,0.23578,0.08066,-0.7681
1746448586.1697433,-1.192,-0.091,7.365,8.591,20.374,-102.925,0.58978,0.23578,0.08066,-0.7681
1746448586.1697433,-1.46,0.091,7.7,8.745,20.149,-102.887,0.58978,0.23578,0.08066,-0.7681
1746448586.170757,-1.46,0.091,7.7,8.926,19.962,-102.832,0.58978,0.23578,0.08066,-0.7681
1746448586.1717412,-1.504,0.359,8.001,9.031,19.792,-102.81,0.58978,0.23578,0.08066,-0.7681
1746448586.1717412,-1.504,0.359,8.001,9.058,19.638,-102.821,0.58978,0.23578,0.08066,-0.7681
1746448586.217728,-1.46,0.479,8.341,9.036,19.49,-102.849,0.58978,0.23578,0.08066,-0.7681
1746448586.2461033,-1.46,0.479,8.341,8.965,19.341,-102.892,0.58978,0.23578,0.08066,-0.7681
1746448586.2471097,-1.235,0.541,8.337,8.877,19.199,-102.936,0.58978,0.23578,0.08066,-0.7681
1746448586.24863,-1.235,0.541,8.337,8.767,19.067,-102.991,0.58978,0.23578,0.08066,-0.7681
1746448586.2496526,-1.365,0.613,8.873,8.685,18.951,-103.03,0.6022,0.17618,0.04379,-0.77734
1746448586.2516494,-1.365,0.613,8.873,8.619,18.858,-103.063,0.6022,0.17618,0.04379,-0.77734
1746448586.2526472,-1.456,0.996,9.309,8.558,18.759,-103.079,0.6022,0.17618,0.04379,-0.77734
1746448586.2536542,-1.456,0.996,9.309,8.503,18.666,-103.079,0.6022,0.17618,0.04379,-0.77734
