address,timestamp,AccX,AccY,AccZ,AngX,AngY,AngZ,Q0,Q1,Q2,Q3
F3:89:79:49:6C:B3,1748091864.5257998,0.311,-8.418,5.2,-62.271,0.247,-31.63,0.82108,-0.49713,0.15259,-0.23508
F3:89:79:49:6C:B3,1748091864.533766,0.321,-8.15,5.181,-62.221,0.231,-31.608,0.82108,-0.49713,0.15259,-0.23508
F3:89:79:49:6C:B3,1748091864.533766,0.321,-8.15,5.181,-62.177,0.209,-31.586,0.82108,-0.49713,0.15259,-0.23508
F3:89:79:49:6C:B3,1748091864.533766,0.407,-8.207,5.219,-62.161,0.225,-31.569,0.82108,-0.49713,0.15259,-0.23508
C3:16:82:EF:1B:48,1748091864.5347762,1.484,-7.451,6.9,-51.724,-2.785,-55.854,0.78833,-0.39609,0.19052,-0.43036
C3:16:82:EF:1B:48,1748091864.5347762,1.288,-7.532,6.67,-51.685,-2.785,-55.86,0.78833,-0.39609,0.19052,-0.43036
C3:16:82:EF:1B:48,1748091864.5356953,1.288,-7.532,6.67,-51.669,-2.769,-55.86,0.78833,-0.39609,0.19052,-0.43036
C3:16:82:EF:1B:48,1748091864.5356953,1.073,-7.69,6.263,-51.658,-2.736,-55.876,0.78833,-0.39609,0.19052,-0.43036
F3:89:79:49:6C:B3,1748091864.5455027,0.407,-8.207,5.219,-62.139,0.236,-31.547,0.82108,-0.49713,0.15259,-0.23508
F3:89:79:49:6C:B3,1748091864.5455027,0.263,-8.308,5.128,-62.139,0.291,-31.558,0.82108,-0.49713,0.15259,-0.23508
F3:89:79:49:6C:B3,1748091864.5455027,0.263,-8.308,5.128,-62.139,0.346,-31.575,0.82108,-0.49713,0.15259,-0.23508
F3:89:79:49:6C:B3,1748091864.5455027,0.244,-8.432,5.1,-62.139,0.445,-31.624,0.82108,-0.49713,0.15259,-0.23508
C3:16:82:EF:1B:48,1748091864.558699,1.073,-7.69,6.263,-51.658,-2.686,-55.904,0.78833,-0.39609,0.19052,-0.43036
C3:16:82:EF:1B:48,1748091864.558699,1.178,-7.843,6.048,-51.658,-2.609,-55.948,0.78833,-0.39609,0.19052,-0.43036
C3:16:82:EF:1B:48,1748091864.558699,1.178,-7.843,6.048,-51.658,-2.516,-56.008,0.78833,-0.39609,0.19052,-0.43036
C3:16:82:EF:1B:48,1748091864.558699,1.369,-7.815,6.349,-51.658,-2.384,-56.096,0.78833,-0.39609,0.19052,-0.43036
F3:89:79:49:6C:B3,1748091864.575364,0.244,-8.432,5.1,-62.139,0.538,-31.679,0.82108,-0.49713,0.15259,-0.23508
F3:89:79:49:6C:B3,1748091864.575364,0.273,-8.432,5.186,-62.133,0.703,-31.778,0.82108,-0.49713,0.15259,-0.23508
F3:89:79:49:6C:B3,1748091864.575364,0.273,-8.432,5.186,-62.133,0.857,-31.882,0.82108,-0.49713,0.15259,-0.23508
F3:89:79:49:6C:B3,1748091864.575364,-0.019,-8.399,5.272,-62.144,1.038,-31.981,0.82108,-0.49713,0.15259,-0.23508
C3:16:82:EF:1B:48,1748091864.5910294,1.369,-7.815,6.349,-51.663,-2.225,-56.206,0.78833,-0.39609,0.19052,-0.43036
C3:16:82:EF:1B:48,1748091864.5910294,0.555,-7.776,6.46,-51.674,-2.06,-56.31,0.78833,-0.39609,0.19052,-0.43036
C3:16:82:EF:1B:48,1748091864.5910294,0.555,-7.776,6.46,-51.691,-1.879,-56.42,0.78833,-0.39609,0.19052,-0.43036
C3:16:82:EF:1B:48,1748091864.5910294,-0.273,-7.843,6.139,-51.718,-1.697,-56.536,0.78833,-0.39609,0.19052,-0.43036
F3:89:79:49:6C:B3,1748091864.6399462,-0.019,-8.399,5.272,-62.155,1.219,-32.086,0.82108,-0.49713,0.15259,-0.23508
F3:89:79:49:6C:B3,1748091864.7199662,-0.397,-8.384,5.219,-62.172,1.39,-32.201,0.82108,-0.49713,0.15259,-0.23508
F3:89:79:49:6C:B3,1748091864.7199662,-0.397,-8.384,5.219,-62.188,1.555,-32.316,0.82108,-0.49713,0.15259,-0.23508
F3:89:79:49:6C:B3,1748091864.7199662,-0.737,-8.437,5.219,-62.188,1.686,-32.421,0.82108,-0.49713,0.15259,-0.23508
C3:16:82:EF:1B:48,1748091864.7219822,-0.273,-7.843,6.139,-51.746,-1.522,-56.662,0.78833,-0.39609,0.19052,-0.43036
C3:16:82:EF:1B:48,1748091864.7219822,-0.555,-7.973,5.669,-51.762,-1.362,-56.788,0.78833,-0.39609,0.19052,-0.43036
C3:16:82:EF:1B:48,1748091864.723111,-0.555,-7.973,5.669,-51.779,-1.214,-56.915,0.78833,-0.39609,0.19052,-0.43036
C3:16:82:EF:1B:48,1748091864.7241104,-0.723,-7.944,5.55,-51.773,-1.104,-57.008,0.78833,-0.39609,0.19052,-0.43036
F3:89:79:49:6C:B3,1748091864.726105,-0.737,-8.437,5.219,-62.188,1.818,-32.52,0.82425,-0.49234,0.15628,-0.23169
F3:89:79:49:6C:B3,1748091864.726105,-0.776,-8.389,5.176,-62.161,1.884,-32.558,0.82425,-0.49234,0.15628,-0.23169
F3:89:79:49:6C:B3,1748091864.726105,-0.776,-8.389,5.176,-62.128,1.95,-32.591,0.82425,-0.49234,0.15628,-0.23169
F3:89:79:49:6C:B3,1748091864.726105,-0.843,-8.461,5.258,-62.062,1.928,-32.547,0.82425,-0.49234,0.15628,-0.23169
C3:16:82:EF:1B:48,1748091864.726105,-0.723,-7.944,5.55,-51.751,-1.022,-57.074,0.78851,-0.38779,0.20071,-0.43301
C3:16:82:EF:1B:48,1748091864.726105,-0.962,-8.04,5.459,-51.707,-0.983,-57.107,0.78851,-0.38779,0.20071,-0.43301
C3:16:82:EF:1B:48,1748091864.726105,-0.962,-8.04,5.459,-51.641,-0.983,-57.101,0.78851,-0.38779,0.20071,-0.43301
C3:16:82:EF:1B:48,1748091864.726105,-0.939,-7.805,5.904,-51.559,-1.022,-57.079,0.78851,-0.38779,0.20071,-0.43301
F3:89:79:49:6C:B3,1748091864.726105,-0.843,-8.461,5.258,-61.99,1.912,-32.503,0.82425,-0.49234,0.15628,-0.23169
F3:89:79:49:6C:B3,1748091864.726105,-0.723,-8.274,5.306,-61.891,1.813,-32.415,0.82425,-0.49234,0.15628,-0.23169
F3:89:79:49:6C:B3,1748091864.726105,-0.723,-8.274,5.306,-61.787,1.719,-32.333,0.82425,-0.49234,0.15628,-0.23169
F3:89:79:49:6C:B3,1748091864.726105,-0.287,-8.107,5.444,-61.683,1.593,-32.261,0.82425,-0.49234,0.15628,-0.23169
C3:16:82:EF:1B:48,1748091864.726105,-0.939,-7.805,5.904,-51.454,-1.093,-57.041,0.78851,-0.38779,0.20071,-0.43301
C3:16:82:EF:1B:48,1748091864.726105,-0.077,-7.518,6.517,-51.345,-1.181,-57.014,0.78851,-0.38779,0.20071,-0.43301
C3:16:82:EF:1B:48,1748091864.726105,-0.077,-7.518,6.517,-51.229,-1.28,-56.986,0.78851,-0.38779,0.20071,-0.43301
C3:16:82:EF:1B:48,1748091864.726105,1.034,-7.269,7.259,-51.13,-1.357,-57.008,0.78851,-0.38779,0.20071,-0.43301
F3:89:79:49:6C:B3,1748091864.757718,-0.287,-8.107,5.444,-61.578,1.472,-32.195,0.82425,-0.49234,0.15628,-0.23169
F3:89:79:49:6C:B3,1748091864.757718,0.177,-7.997,5.392,-61.501,1.406,-32.217,0.82425,-0.49234,0.15628,-0.23169
F3:89:79:49:6C:B3,1748091864.757718,0.177,-7.997,5.392,-61.425,1.335,-32.239,0.82425,-0.49234,0.15628,-0.23169
F3:89:79:49:6C:B3,1748091864.757718,0.316,-8.054,5.646,-61.392,1.324,-32.294,0.82425,-0.49234,0.15628,-0.23169
C3:16:82:EF:1B:48,1748091864.774857,1.034,-7.269,7.259,-51.042,-1.401,-57.068,0.78851,-0.38779,0.20071,-0.43301
C3:16:82:EF:1B:48,1748091864.774857,1.494,-7.345,7.082,-50.982,-1.423,-57.14,0.78851,-0.38779,0.20071,-0.43301
C3:16:82:EF:1B:48,1748091864.774857,1.494,-7.345,7.082,-50.938,-1.428,-57.217,0.78851,-0.38779,0.20071,-0.43301
C3:16:82:EF:1B:48,1748091864.774857,1.034,-7.389,6.996,-50.911,-1.406,-57.288,0.78851,-0.38779,0.20071,-0.43301
F3:89:79:49:6C:B3,1748091864.774857,0.316,-8.054,5.646,-61.353,1.313,-32.344,0.82425,-0.49234,0.15628,-0.23169
F3:89:79:49:6C:B3,1748091864.7900176,0.053,-8.073,5.535,-61.342,1.346,-32.393,0.82425,-0.49234,0.15628,-0.23169
F3:89:79:49:6C:B3,1748091864.791693,0.053,-8.073,5.535,-61.326,1.373,-32.443,0.82425,-0.49234,0.15628,-0.23169
F3:89:79:49:6C:B3,1748091864.791693,-0.101,-8.241,5.698,-61.326,1.412,-32.476,0.82425,-0.49234,0.15628,-0.23169
F3:89:79:49:6C:B3,1748091864.8085895,-0.101,-8.241,5.698,-61.32,1.45,-32.503,0.82425,-0.49234,0.15628,-0.23169
F3:89:79:49:6C:B3,1748091864.8085895,-0.139,-8.317,5.622,-61.309,1.505,-32.563,0.82425,-0.49234,0.15628,-0.23169
F3:89:79:49:6C:B3,1748091864.8085895,-0.139,-8.317,5.622,-61.298,1.555,-32.624,0.82425,-0.49234,0.15628,-0.23169
F3:89:79:49:6C:B3,1748091864.823387,-0.345,-8.322,5.674,-61.293,1.593,-32.668,0.82425,-0.49234,0.15628,-0.23169
C3:16:82:EF:1B:48,1748091864.8252478,1.034,-7.389,6.996,-50.894,-1.368,-57.354,0.78851,-0.38779,0.20071,-0.43301
C3:16:82:EF:1B:48,1748091864.8252478,0.498,-7.633,6.551,-50.883,-1.329,-57.404,0.78851,-0.38779,0.20071,-0.43301
C3:16:82:EF:1B:48,1748091864.8252478,0.498,-7.633,6.551,-50.878,-1.285,-57.453,0.78851,-0.38779,0.20071,-0.43301
C3:16:82:EF:1B:48,1748091864.8252478,0.326,-7.705,6.642,-50.872,-1.236,-57.508,0.78851,-0.38779,0.20071,-0.43301
C3:16:82:EF:1B:48,1748091864.8252478,0.326,-7.705,6.642,-50.861,-1.176,-57.585,0.78851,-0.38779,0.20071,-0.43301
C3:16:82:EF:1B:48,1748091864.8400478,0.077,-7.724,6.656,-50.85,-1.126,-57.656,0.78851,-0.38779,0.20071,-0.43301
C3:16:82:EF:1B:48,1748091864.9229038,0.077,-7.724,6.656,-50.845,-1.071,-57.722,0.78851,-0.38779,0.20071,-0.43301
C3:16:82:EF:1B:48,1748091864.923895,-0.196,-7.714,6.656,-50.834,-1.038,-57.783,0.78851,-0.38779,0.20071,-0.43301
F3:89:79:49:6C:B3,1748091864.9259014,-0.345,-8.322,5.674,-61.282,1.637,-32.712,0.82425,-0.49234,0.15628,-0.23169
F3:89:79:49:6C:B3,1748091864.9259014,-0.388,-8.298,5.746,-61.276,1.648,-32.739,0.82425,-0.49234,0.15628,-0.23169
F3:89:79:49:6C:B3,1748091864.9259014,-0.388,-8.298,5.746,-61.26,1.664,-32.767,0.82425,-0.49234,0.15628,-0.23169
F3:89:79:49:6C:B3,1748091864.9259014,-0.426,-8.284,5.703,-61.265,1.659,-32.816,0.82425,-0.49234,0.15628,-0.23169
C3:16:82:EF:1B:48,1748091864.9259014,-0.196,-7.714,6.656,-50.817,-1.011,-57.838,0.78851,-0.38779,0.20071,-0.43301
C3:16:82:EF:1B:48,1748091864.9259014,-0.359,-7.666,6.9,-50.806,-1.0,-57.898,0.78851,-0.38779,0.20071,-0.43301
C3:16:82:EF:1B:48,1748091864.9259014,-0.359,-7.666,6.9,-50.806,-0.994,-57.964,0.78851,-0.38779,0.20071,-0.43301
C3:16:82:EF:1B:48,1748091864.9259014,-0.172,-7.724,6.867,-50.806,-0.978,-58.068,0.78851,-0.38779,0.20071,-0.43301
F3:89:79:49:6C:B3,1748091864.9259014,-0.426,-8.284,5.703,-61.265,1.653,-32.86,0.82425,-0.49234,0.15628,-0.23169
F3:89:79:49:6C:B3,1748091864.9259014,-0.488,-8.337,5.76,-61.271,1.664,-32.97,0.82425,-0.49234,0.15628,-0.23169
F3:89:79:49:6C:B3,1748091864.9259014,-0.488,-8.337,5.76,-61.282,1.67,-33.08,0.82425,-0.49234,0.15628,-0.23169
F3:89:79:49:6C:B3,1748091864.9259014,-0.412,-8.284,5.674,-61.298,1.631,-33.113,0.82425,-0.49234,0.15628,-0.23169
C3:16:82:EF:1B:48,1748091864.9259014,-0.172,-7.724,6.867,-50.812,-0.95,-58.2,0.78851,-0.38779,0.20071,-0.43301
C3:16:82:EF:1B:48,1748091864.9259014,0.096,-7.685,6.718,-50.823,-0.956,-58.299,0.78851,-0.38779,0.20071,-0.43301
C3:16:82:EF:1B:48,1748091864.9259014,0.096,-7.685,6.718,-50.834,-0.983,-58.354,0.78851,-0.38779,0.20071,-0.43301
C3:16:82:EF:1B:48,1748091864.9259014,0.393,-7.805,6.369,-50.845,-1.022,-58.398,0.78851,-0.38779,0.20071,-0.43301
F3:89:79:49:6C:B3,1748091864.9259014,-0.412,-8.284,5.674,-61.32,1.588,-33.146,0.82425,-0.49234,0.15628,-0.23169
F3:89:79:49:6C:B3,1748091864.9399903,-0.244,-8.38,5.617,-61.337,1.538,-33.151,0.82425,-0.49234,0.15628,-0.23169
F3:89:79:49:6C:B3,1748091864.9414077,-0.244,-8.38,5.617,-61.348,1.483,-33.151,0.82425,-0.49234,0.15628,-0.23169
F3:89:79:49:6C:B3,1748091864.9414077,-0.196,-8.26,5.325,-61.364,1.439,-33.157,0.82425,-0.49234,0.15628,-0.23169
C3:16:82:EF:1B:48,1748091864.9414077,0.393,-7.805,6.369,-50.856,-1.066,-58.425,0.78851,-0.38779,0.20071,-0.43301
C3:16:82:EF:1B:48,1748091864.9414077,0.373,-7.647,6.522,-50.867,-1.11,-58.453,0.78851,-0.38779,0.20071,-0.43301
C3:16:82:EF:1B:48,1748091864.9414077,0.373,-7.647,6.522,-50.872,-1.148,-58.486,0.78851,-0.38779,0.20071,-0.43301
C3:16:82:EF:1B:48,1748091864.9566011,0.575,-7.8,5.923,-50.883,-1.198,-58.491,0.78851,-0.38779,0.20071,-0.43301
F3:89:79:49:6C:B3,1748091864.9923923,-0.196,-8.26,5.325,-61.381,1.39,-33.162,0.82425,-0.49234,0.15628,-0.23169
F3:89:79:49:6C:B3,1748091864.9923923,-0.168,-8.346,5.411,-61.392,1.324,-33.113,0.82584,-0.48615,0.15567,-0.23944
F3:89:79:49:6C:B3,1748091864.9923923,-0.168,-8.346,5.411,-61.408,1.258,-33.063,0.82584,-0.48615,0.15567,-0.23944
F3:89:79:49:6C:B3,1748091864.9923923,-0.259,-8.317,5.31,-61.386,1.17,-32.959,0.82584,-0.48615,0.15567,-0.23944
C3:16:82:EF:1B:48,1748091865.015015,0.575,-7.8,5.923,-50.894,-1.263,-58.469,0.78851,-0.38779,0.20071,-0.43301
C3:16:82:EF:1B:48,1748091865.0160186,0.393,-7.81,5.646,-50.889,-1.34,-58.425,0.78552,-0.37979,0.20114,-0.44513
C3:16:82:EF:1B:48,1748091865.017015,0.393,-7.81,5.646,-50.861,-1.423,-58.354,0.78552,-0.37979,0.20114,-0.44513
C3:16:82:EF:1B:48,1748091865.0180182,0.019,-7.887,5.598,-50.812,-1.549,-58.217,0.78552,-0.37979,0.20114,-0.44513
F3:89:79:49:6C:B3,1748091865.029561,-0.259,-8.317,5.31,-61.37,1.082,-32.855,0.82584,-0.48615,0.15567,-0.23944
F3:89:79:49:6C:B3,1748091865.0302083,-0.239,-8.384,5.329,-61.315,0.917,-32.624,0.82584,-0.48615,0.15567,-0.23944
F3:89:79:49:6C:B3,1748091865.0312119,-0.239,-8.384,5.329,-61.26,0.753,-32.399,0.82584,-0.48615,0.15567,-0.23944
F3:89:79:49:6C:B3,1748091865.032212,-0.259,-8.217,5.186,-61.177,0.566,-32.201,0.82584,-0.48615,0.15567,-0.23944
C3:16:82:EF:1B:48,1748091865.0436127,0.019,-7.887,5.598,-50.746,-1.719,-58.024,0.78552,-0.37979,0.20114,-0.44513
C3:16:82:EF:1B:48,1748091865.133567,-0.316,-7.685,5.885,-50.663,-1.89,-57.854,0.78552,-0.37979,0.20114,-0.44513
C3:16:82:EF:1B:48,1748091865.1345627,-0.316,-7.685,5.885,-50.57,-2.071,-57.7,0.78552,-0.37979,0.20114,-0.44513
C3:16:82:EF:1B:48,1748091865.1345627,0.541,-7.594,6.024,-50.466,-2.252,-57.574,0.78552,-0.37979,0.20114,-0.44513
F3:89:79:49:6C:B3,1748091865.1358514,-0.259,-8.217,5.186,-61.095,0.379,-32.003,0.82584,-0.48615,0.15567,-0.23944
F3:89:79:49:6C:B3,1748091865.1365654,0.014,-8.169,5.325,-60.996,0.192,-31.849,0.82584,-0.48615,0.15567,-0.23944
F3:89:79:49:6C:B3,1748091865.1365654,0.014,-8.169,5.325,-60.903,0.005,-31.696,0.82584,-0.48615,0.15567,-0.23944
F3:89:79:49:6C:B3,1748091865.137941,0.728,-8.226,5.334,-60.793,-0.115,-31.608,0.82584,-0.48615,0.15567,-0.23944
C3:16:82:EF:1B:48,1748091865.138564,0.541,-7.594,6.024,-50.361,-2.428,-57.469,0.78552,-0.37979,0.20114,-0.44513
C3:16:82:EF:1B:48,1748091865.1395607,1.954,-7.518,6.594,-50.246,-2.571,-57.398,0.78552,-0.37979,0.20114,-0.44513
C3:16:82:EF:1B:48,1748091865.1405632,1.954,-7.518,6.594,-50.131,-2.692,-57.349,0.78552,-0.37979,0.20114,-0.44513
C3:16:82:EF:1B:48,1748091865.1416192,2.073,-7.475,6.838,-50.026,-2.758,-57.338,0.78552,-0.37979,0.20114,-0.44513
F3:89:79:49:6C:B3,1748091865.1425698,0.728,-8.226,5.334,-60.688,-0.242,-31.52,0.82584,-0.48615,0.15567,-0.23944
F3:89:79:49:6C:B3,1748091865.1425698,0.781,-8.212,5.43,-60.601,-0.264,-31.509,0.82584,-0.48615,0.15567,-0.23944
F3:89:79:49:6C:B3,1748091865.1425698,0.781,-8.212,5.43,-60.507,-0.291,-31.498,0.82584,-0.48615,0.15567,-0.23944
F3:89:79:49:6C:B3,1748091865.1425698,0.306,-8.27,5.612,-60.43,-0.291,-31.476,0.82584,-0.48615,0.15567,-0.23944
C3:16:82:EF:1B:48,1748091865.1425698,2.073,-7.475,6.838,-49.938,-2.774,-57.354,0.78552,-0.37979,0.20114,-0.44513
C3:16:82:EF:1B:48,1748091865.1425698,0.972,-7.604,6.68,-49.85,-2.785,-57.365,0.78552,-0.37979,0.20114,-0.44513
C3:16:82:EF:1B:48,1748091865.1425698,0.972,-7.604,6.68,-49.774,-2.785,-57.365,0.78552,-0.37979,0.20114,-0.44513
C3:16:82:EF:1B:48,1748091865.1425698,0.46,-7.633,6.823,-49.697,-2.802,-57.343,0.78552,-0.37979,0.20114,-0.44513
F3:89:79:49:6C:B3,1748091865.1425698,0.306,-8.27,5.612,-60.353,-0.297,-31.454,0.82584,-0.48615,0.15567,-0.23944
F3:89:79:49:6C:B3,1748091865.1425698,0.211,-8.298,5.631,-60.287,-0.33,-31.382,0.82584,-0.48615,0.15567,-0.23944
F3:89:79:49:6C:B3,1748091865.1425698,0.211,-8.298,5.631,-60.227,-0.363,-31.317,0.82584,-0.48615,0.15567,-0.23944
F3:89:79:49:6C:B3,1748091865.1425698,-0.01,-8.231,5.737,-60.172,-0.412,-31.267,0.82584,-0.48615,0.15567,-0.23944
C3:16:82:EF:1B:48,1748091865.1645312,0.46,-7.633,6.823,-49.625,-2.834,-57.299,0.78552,-0.37979,0.20114,-0.44513
C3:16:82:EF:1B:48,1748091865.1651733,0.163,-7.58,6.914,-49.559,-2.867,-57.266,0.78552,-0.37979,0.20114,-0.44513
C3:16:82:EF:1B:48,1748091865.166177,0.163,-7.58,6.914,-49.493,-2.911,-57.244,0.78552,-0.37979,0.20114,-0.44513
C3:16:82:EF:1B:48,1748091865.1671734,-0.177,-7.633,6.847,-49.438,-2.972,-57.217,0.78552,-0.37979,0.20114,-0.44513
F3:89:79:49:6C:B3,1748091865.2091103,-0.01,-8.231,5.737,-60.117,-0.461,-31.218,0.82584,-0.48615,0.15567,-0.23944
F3:89:79:49:6C:B3,1748091865.2111037,-0.172,-8.26,5.741,-60.084,-0.544,-31.157,0.82584,-0.48615,0.15567,-0.23944
F3:89:79:49:6C:B3,1748091865.2121065,-0.172,-8.26,5.741,-60.046,-0.626,-31.097,0.82584,-0.48615,0.15567,-0.23944
F3:89:79:49:6C:B3,1748091865.2131102,-0.048,-8.322,5.895,-60.007,-0.736,-31.047,0.82584,-0.48615,0.15567,-0.23944
C3:16:82:EF:1B:48,1748091865.2247877,-0.177,-7.633,6.847,-49.395,-3.049,-57.184,0.78552,-0.37979,0.20114,-0.44513
C3:16:82:EF:1B:48,1748091865.2258894,0.124,-7.695,6.742,-49.345,-3.137,-57.156,0.79214,-0.3783,0.17822,-0.44443
C3:16:82:EF:1B:48,1748091865.2268896,0.124,-7.695,6.742,-49.29,-3.235,-57.145,0.79214,-0.3783,0.17822,-0.44443
C3:16:82:EF:1B:48,1748091865.2288888,0.728,-7.475,7.614,-49.246,-3.329,-57.14,0.79214,-0.3783,0.17822,-0.44443
F3:89:79:49:6C:B3,1748091865.2396882,-0.048,-8.322,5.895,-59.969,-0.846,-31.003,0.83353,-0.48328,0.12793,-0.23495
F3:89:79:49:6C:B3,1748091865.241595,0.081,-8.222,6.043,-59.941,-0.945,-30.981,0.83353,-0.48328,0.12793,-0.23495
F3:89:79:49:6C:B3,1748091865.242593,0.081,-8.222,6.043,-59.919,-1.049,-30.959,0.83353,-0.48328,0.12793,-0.23495
F3:89:79:49:6C:B3,1748091865.2435951,0.268,-8.159,6.091,-59.947,-1.137,-30.932,0.83353,-0.48328,0.12793,-0.23495
C3:16:82:EF:1B:48,1748091865.254988,0.728,-7.475,7.614,-49.197,-3.417,-57.145,0.79214,-0.3783,0.17822,-0.44443
C3:16:82:EF:1B:48,1748091865.350214,0.934,-7.341,8.135,-49.186,-3.505,-57.14,0.79214,-0.3783,0.17822,-0.44443
C3:16:82:EF:1B:48,1748091865.3560379,0.934,-7.341,8.135,-49.197,-3.593,-57.123,0.79214,-0.3783,0.17822,-0.44443
C3:16:82:EF:1B:48,1748091865.3560379,0.848,-7.523,7.709,-49.23,-3.664,-57.123,0.79214,-0.3783,0.17822,-0.44443
F3:89:79:49:6C:B3,1748091865.3570664,0.268,-8.159,6.091,-59.974,-1.23,-30.899,0.83353,-0.48328,0.12793,-0.23495
F3:89:79:49:6C:B3,1748091865.3580642,0.168,-8.265,6.211,-60.046,-1.28,-30.916,0.83353,-0.48328,0.12793,-0.23495
F3:89:79:49:6C:B3,1748091865.3597226,0.168,-8.265,6.211,-60.112,-1.329,-30.927,0.83353,-0.48328,0.12793,-0.23495
F3:89:79:49:6C:B3,1748091865.3608742,-0.01,-8.26,6.12,-60.216,-1.351,-30.987,0.83353,-0.48328,0.12793,-0.23495
C3:16:82:EF:1B:48,1748091865.3608742,0.848,-7.523,7.709,-49.29,-3.708,-57.145,0.79214,-0.3783,0.17822,-0.44443
C3:16:82:EF:1B:48,1748091865.3608742,0.268,-7.523,7.623,-49.362,-3.746,-57.184,0.79214,-0.3783,0.17822,-0.44443
C3:16:82:EF:1B:48,1748091865.3608742,0.268,-7.523,7.623,-49.449,-3.768,-57.239,0.79214,-0.3783,0.17822,-0.44443
C3:16:82:EF:1B:48,1748091865.36294,0.311,-7.609,7.508,-49.548,-3.79,-57.316,0.79214,-0.3783,0.17822,-0.44443
F3:89:79:49:6C:B3,1748091865.36294,-0.01,-8.26,6.12,-60.309,-1.379,-31.042,0.83353,-0.48328,0.12793,-0.23495
F3:89:79:49:6C:B3,1748091865.36294,0.081,-8.346,6.201,-60.43,-1.406,-31.13,0.83353,-0.48328,0.12793,-0.23495
F3:89:79:49:6C:B3,1748091865.36294,0.081,-8.346,6.201,-60.551,-1.428,-31.218,0.83353,-0.48328,0.12793,-0.23495
F3:89:79:49:6C:B3,1748091865.36294,0.168,-8.27,6.163,-60.694,-1.494,-31.256,0.83353,-0.48328,0.12793,-0.23495
C3:16:82:EF:1B:48,1748091865.36294,0.311,-7.609,7.508,-49.658,-3.812,-57.404,0.79214,-0.3783,0.17822,-0.44443
C3:16:82:EF:1B:48,1748091865.36294,0.632,-7.513,7.518,-49.774,-3.856,-57.469,0.79214,-0.3783,0.17822,-0.44443
C3:16:82:EF:1B:48,1748091865.36294,0.632,-7.513,7.518,-49.905,-3.922,-57.508,0.79214,-0.3783,0.17822,-0.44443
C3:16:82:EF:1B:48,1748091865.36294,0.594,-7.451,7.403,-50.043,-4.005,-57.519,0.79214,-0.3783,0.17822,-0.44443
F3:89:79:49:6C:B3,1748091865.36294,0.168,-8.27,6.163,-60.837,-1.56,-31.289,0.83353,-0.48328,0.12793,-0.23495
F3:89:79:49:6C:B3,1748091865.36294,0.273,-8.198,6.081,-61.002,-1.659,-31.273,0.83353,-0.48328,0.12793,-0.23495
F3:89:79:49:6C:B3,1748091865.36294,0.532,-8.116,5.808,-61.177,-1.752,-31.289,0.83353,-0.48328,0.12793,-0.23495
F3:89:79:49:6C:B3,1748091865.36294,0.532,-8.116,5.808,-61.364,-1.835,-31.333,0.83353,-0.48328,0.12793,-0.23495
C3:16:82:EF:1B:48,1748091865.3732696,0.594,-7.451,7.403,-50.191,-4.109,-57.508,0.79214,-0.3783,0.17822,-0.44443
C3:16:82:EF:1B:48,1748091865.3732696,0.761,-7.35,7.25,-50.35,-4.202,-57.524,0.79214,-0.3783,0.17822,-0.44443
C3:16:82:EF:1B:48,1748091865.3742905,0.761,-7.35,7.25,-50.521,-4.29,-57.568,0.79214,-0.3783,0.17822,-0.44443
C3:16:82:EF:1B:48,1748091865.3752885,1.24,-7.479,6.756,-50.713,-4.373,-57.623,0.79214,-0.3783,0.17822,-0.44443
F3:89:79:49:6C:B3,1748091865.3891113,0.618,-8.207,5.693,-61.562,-1.923,-31.382,0.83353,-0.48328,0.12793,-0.23495
F3:89:79:49:6C:B3,1748091865.3900979,0.618,-8.207,5.693,-61.76,-2.005,-31.437,0.83353,-0.48328,0.12793,-0.23495
F3:89:79:49:6C:B3,1748091865.3910997,0.804,-8.15,5.215,-61.968,-2.082,-31.492,0.83353,-0.48328,0.12793,-0.23495
F3:89:79:49:6C:B3,1748091865.3931088,0.804,-8.15,5.215,-62.177,-2.159,-31.542,0.83353,-0.48328,0.12793,-0.23495
C3:16:82:EF:1B:48,1748091865.4041002,1.24,-7.479,6.756,-50.9,-4.455,-57.678,0.79214,-0.3783,0.17822,-0.44443
C3:16:82:EF:1B:48,1748091865.4050972,1.595,-7.441,6.369,-51.103,-4.537,-57.717,0.79214,-0.3783,0.17822,-0.44443
C3:16:82:EF:1B:48,1748091865.4061003,1.595,-7.441,6.369,-51.306,-4.62,-57.761,0.79214,-0.3783,0.17822,-0.44443
C3:16:82:EF:1B:48,1748091865.4070997,1.968,-7.527,5.43,-51.498,-4.658,-57.832,0.79214,-0.3783,0.17822,-0.44443
F3:89:79:49:6C:B3,1748091865.448871,0.958,-8.145,4.884,-62.386,-2.208,-31.608,0.83353,-0.48328,0.12793,-0.23495
F3:89:79:49:6C:B3,1748091865.449866,0.958,-8.145,4.884,-62.584,-2.247,-31.685,0.81964,-0.50342,0.12537,-0.2428
F3:89:79:49:6C:B3,1748091865.4508772,0.948,-7.939,4.563,-62.759,-2.263,-31.761,0.81964,-0.50342,0.12537,-0.2428
F3:89:79:49:6C:B3,1748091865.4518692,0.948,-7.939,4.563,-62.919,-2.274,-31.833,0.81964,-0.50342,0.12537,-0.2428
C3:16:82:EF:1B:48,1748091865.4649026,1.968,-7.527,5.43,-51.696,-4.697,-57.898,0.79214,-0.3783,0.17822,-0.44443
C3:16:82:EF:1B:48,1748091865.4924722,1.963,-7.408,4.721,-51.85,-4.708,-57.958,0.77774,-0.39954,0.17892,-0.45096
C3:16:82:EF:1B:48,1748091865.4924722,1.963,-7.408,4.721,-52.009,-4.724,-58.019,0.77774,-0.39954,0.17892,-0.45096
C3:16:82:EF:1B:48,1748091865.4924722,1.753,-7.25,4.228,-52.125,-4.741,-58.035,0.77774,-0.39954,0.17892,-0.45096
F3:89:79:49:6C:B3,1748091865.4924722,0.953,-7.733,4.228,-63.056,-2.28,-31.877,0.81964,-0.50342,0.12537,-0.2428
F3:89:79:49:6C:B3,1748091865.4924722,0.953,-7.733,4.228,-63.166,-2.285,-31.899,0.81964,-0.50342,0.12537,-0.2428
F3:89:79:49:6C:B3,1748091865.5003319,1.101,-7.566,3.893,-63.248,-2.28,-31.926,0.81964,-0.50342,0.12537,-0.2428
F3:89:79:49:6C:B3,1748091865.5003319,1.101,-7.566,3.893,-63.303,-2.263,-31.959,0.81964,-0.50342,0.12537,-0.2428
C3:16:82:EF:1B:48,1748091865.5013492,1.753,-7.25,4.228,-52.245,-4.757,-58.057,0.77774,-0.39954,0.17892,-0.45096
C3:16:82:EF:1B:48,1748091865.5013492,2.045,-7.111,3.898,-52.306,-4.741,-58.09,0.77774,-0.39954,0.17892,-0.45096
C3:16:82:EF:1B:48,1748091865.5023513,2.045,-7.111,3.898,-52.366,-4.735,-58.129,0.77774,-0.39954,0.17892,-0.45096
C3:16:82:EF:1B:48,1748091865.5023513,2.342,-6.919,3.812,-52.366,-4.708,-58.129,0.77774,-0.39954,0.17892,-0.45096
F3:89:79:49:6C:B3,1748091865.5096815,1.192,-7.379,3.922,-63.325,-2.241,-31.965,0.81964,-0.50342,0.12537,-0.2428
F3:89:79:49:6C:B3,1748091865.5096815,1.192,-7.379,3.922,-63.32,-2.208,-31.954,0.81964,-0.50342,0.12537,-0.2428
F3:89:79:49:6C:B3,1748091865.5096815,1.101,-6.895,3.682,-63.292,-2.17,-31.921,0.81964,-0.50342,0.12537,-0.2428
F3:89:79:49:6C:B3,1748091865.5096815,1.101,-6.895,3.682,-63.248,-2.12,-31.866,0.81964,-0.50342,0.12537,-0.2428
C3:16:82:EF:1B:48,1748091865.5243087,2.342,-6.919,3.812,-52.372,-4.686,-58.129,0.77774,-0.39954,0.17892,-0.45096
C3:16:82:EF:1B:48,1748091865.5253046,2.064,-6.416,4.008,-52.344,-4.647,-58.09,0.77774,-0.39954,0.17892,-0.45096
C3:16:82:EF:1B:48,1748091865.526304,2.064,-6.416,4.008,-52.311,-4.609,-58.041,0.77774,-0.39954,0.17892,-0.45096
C3:16:82:EF:1B:48,1748091865.526304,2.073,-6.124,3.701,-52.245,-4.526,-58.019,0.77774,-0.39954,0.17892,-0.45096
F3:89:79:49:6C:B3,1748091865.5598288,1.092,-6.584,3.534,-63.182,-2.049,-31.822,0.81964,-0.50342,0.12537,-0.2428
F3:89:79:49:6C:B3,1748091865.5598288,1.092,-6.584,3.534,-63.094,-1.961,-31.783,0.81964,-0.50342,0.12537,-0.2428
F3:89:79:49:6C:B3,1748091865.5598288,1.235,-6.148,3.06,-62.99,-1.851,-31.745,0.81964,-0.50342,0.12537,-0.2428
F3:89:79:49:6C:B3,1748091865.5731635,1.235,-6.148,3.06,-62.864,-1.73,-31.707,0.81964,-0.50342,0.12537,-0.2428
C3:16:82:EF:1B:48,1748091865.5750222,2.073,-6.124,3.701,-52.18,-4.444,-57.986,0.77774,-0.39954,0.17892,-0.45096
C3:16:82:EF:1B:48,1748091865.5750222,2.222,-5.741,2.94,-52.081,-4.329,-57.953,0.77774,-0.39954,0.17892,-0.45096
C3:16:82:EF:1B:48,1748091865.5750222,2.222,-5.741,2.94,-51.987,-4.219,-57.925,0.77774,-0.39954,0.17892,-0.45096
C3:16:82:EF:1B:48,1748091865.5750222,2.49,-5.325,1.36,-51.806,-4.037,-57.936,0.77774,-0.39954,0.17892,-0.45096
F3:89:79:49:6C:B3,1748091865.5918381,1.398,-5.631,2.614,-62.688,-1.577,-31.679,0.81964,-0.50342,0.12537,-0.2428
F3:89:79:49:6C:B3,1748091865.5918381,1.398,-5.631,2.614,-62.468,-1.401,-31.663,0.81964,-0.50342,0.12537,-0.2428
F3:89:79:49:6C:B3,1748091865.5918381,1.59,-4.247,1.36,-62.177,-1.181,-31.685,0.81964,-0.50342,0.12537,-0.2428
F3:89:79:49:6C:B3,1748091865.5918381,1.59,-4.247,1.36,-61.815,-0.917,-31.729,0.82321,-0.4975,0.13309,-0.23868
C3:16:82:EF:1B:48,1748091865.6081548,2.49,-5.325,1.36,-51.63,-3.867,-57.953,0.77945,-0.39636,0.18396,-0.44876
C3:16:82:EF:1B:48,1748091865.6081548,2.768,-4.017,-0.661,-51.334,-3.598,-58.035,0.77945,-0.39636,0.18396,-0.44876
C3:16:82:EF:1B:48,1748091865.6081548,2.768,-4.017,-0.661,-51.048,-3.329,-58.123,0.77945,-0.39636,0.18396,-0.44876
C3:16:82:EF:1B:48,1748091865.6081548,2.734,-3.376,-4.932,-50.537,-2.999,-58.239,0.77945,-0.39636,0.18396,-0.44876
F3:89:79:49:6C:B3,1748091865.6250467,1.427,-3.314,0.57,-61.326,-0.632,-31.761,0.82321,-0.4975,0.13309,-0.23868
F3:89:79:49:6C:B3,1748091865.6250467,1.427,-3.314,0.57,-60.71,-0.319,-31.789,0.82321,-0.4975,0.13309,-0.23868
F3:89:79:49:6C:B3,1748091865.6250467,1.259,-2.011,-0.369,-59.875,0.0,-31.745,0.82321,-0.4975,0.13309,-0.23868
F3:89:79:49:6C:B3,1748091865.6250467,1.259,-2.011,-0.369,-58.821,0.335,-31.63,0.82321,-0.4975,0.13309,-0.23868
C3:16:82:EF:1B:48,1748091865.6415691,2.734,-3.376,-4.932,-50.065,-2.664,-58.398,0.77945,-0.39636,0.18396,-0.44876
C3:16:82:EF:1B:48,1748091865.6415691,3.529,-1.968,-8.973,-49.186,-2.241,-58.552,0.77945,-0.39636,0.18396,-0.44876
C3:16:82:EF:1B:48,1748091865.6415691,3.529,-1.968,-8.973,-48.373,-1.758,-58.815,0.77945,-0.39636,0.18396,-0.44876
C3:16:82:EF:1B:48,1748091865.6415691,5.282,0.038,-11.961,-46.967,-0.923,-59.178,0.77945,-0.39636,0.18396,-0.44876
F3:89:79:49:6C:B3,1748091865.6898694,1.719,-0.843,-0.527,-57.458,0.764,-31.503,0.82321,-0.4975,0.13309,-0.23868
F3:89:79:49:6C:B3,1748091865.7429228,1.719,-0.843,-0.527,-55.778,1.274,-31.355,0.82321,-0.4975,0.13309,-0.23868
F3:89:79:49:6C:B3,1748091865.7429228,0.622,-0.153,1.077,-53.701,1.862,-31.091,0.82321,-0.4975,0.13309,-0.23868
F3:89:79:49:6C:B3,1748091865.7429228,0.622,-0.153,1.077,-51.224,2.532,-30.701,0.82321,-0.4975,0.13309,-0.23868
C3:16:82:EF:1B:48,1748091865.7429228,5.282,0.038,-11.961,-45.61,-0.011,-59.54,0.77945,-0.39636,0.18396,-0.44876
C3:16:82:EF:1B:48,1748091865.755141,5.066,2.964,-12.345,-43.445,1.198,-59.683,0.77945,-0.39636,0.18396,-0.44876
C3:16:82:EF:1B:48,1748091865.755141,5.066,2.964,-12.345,-41.314,2.439,-59.76,0.77945,-0.39636,0.18396,-0.44876
C3:16:82:EF:1B:48,1748091865.7561617,1.566,8.566,-8.198,-38.375,3.576,-59.216,0.77945,-0.39636,0.18396,-0.44876
F3:89:79:49:6C:B3,1748091865.7571628,-1.01,2.227,3.29,-48.351,3.115,-29.998,0.82321,-0.4975,0.13309,-0.23868
F3:89:79:49:6C:B3,1748091865.7571628,-1.01,2.227,3.29,-45.06,3.576,-28.987,0.82321,-0.4975,0.13309,-0.23868
F3:89:79:49:6C:B3,1748091865.7581587,-2.308,6.076,4.908,-41.468,3.702,-27.653,0.82321,-0.4975,0.13309,-0.23868
F3:89:79:49:6C:B3,1748091865.759162,-2.308,6.076,4.908,-37.54,3.466,-26.032,0.82321,-0.4975,0.13309,-0.23868
C3:16:82:EF:1B:48,1748091865.7601037,1.566,8.566,-8.198,-35.447,4.686,-58.585,0.77945,-0.39636,0.18396,-0.44876
C3:16:82:EF:1B:48,1748091865.7601037,-4.721,30.325,-4.544,-31.959,5.197,-57.266,0.77945,-0.39636,0.18396,-0.44876
C3:16:82:EF:1B:48,1748091865.7601037,-18.895,121.3,-18.186,-27.257,5.021,-55.673,0.77945,-0.39636,0.18396,-0.44876
C3:16:82:EF:1B:48,1748091865.7601037,-3.285,20.432,0.699,-22.258,4.642,-54.168,0.77945,-0.39636,0.18396,-0.44876
F3:89:79:49:6C:B3,1748091865.7601037,-2.174,9.778,6.306,-33.371,3.021,-24.445,0.82321,-0.4975,0.13309,-0.23868
F3:89:79:49:6C:B3,1748091865.7601037,-2.174,9.778,6.306,-28.96,2.351,-22.923,0.82321,-0.4975,0.13309,-0.23868
F3:89:79:49:6C:B3,1748091865.7601037,-2.806,11.803,8.126,-24.351,1.577,-21.588,0.82321,-0.4975,0.13309,-0.23868
F3:89:79:49:6C:B3,1748091865.7601037,-2.806,11.803,8.126,-19.567,0.709,-20.446,0.82321,-0.4975,0.13309,-0.23868
C3:16:82:EF:1B:48,1748091865.7601037,-3.285,20.432,0.699,-17.281,4.18,-52.69,0.77945,-0.39636,0.18396,-0.44876
C3:16:82:EF:1B:48,1748091865.7601037,-4.334,23.837,0.637,-12.019,3.702,-51.432,0.77945,-0.39636,0.18396,-0.44876
C3:16:82:EF:1B:48,1748091865.7601037,-4.334,23.837,0.637,-6.79,3.148,-50.219,0.77945,-0.39636,0.18396,-0.44876
C3:16:82:EF:1B:48,1748091865.7601037,-3.553,28.922,0.862,-1.296,2.417,-49.175,0.77945,-0.39636,0.18396,-0.44876
F3:89:79:49:6C:B3,1748091865.8101046,-2.375,15.265,8.495,-14.634,-0.335,-19.462,0.82321,-0.4975,0.13309,-0.23868
F3:89:79:49:6C:B3,1748091865.8105056,-2.375,15.265,8.495,-9.558,-1.555,-18.666,0.82321,-0.4975,0.13309,-0.23868
F3:89:79:49:6C:B3,1748091865.8126745,-1.997,18.349,8.571,-4.329,-2.769,-18.062,0.82321,-0.4975,0.13309,-0.23868
F3:89:79:49:6C:B3,1748091865.8136683,-1.997,18.349,8.571,1.049,-3.972,-17.655,0.82321,-0.4975,0.13309,-0.23868
C3:16:82:EF:1B:48,1748091865.8252878,-3.553,28.922,0.862,4.147,1.615,-48.197,0.77945,-0.39636,0.18396,-0.44876
C3:16:82:EF:1B:48,1748091865.8269887,-3.347,33.581,-0.594,9.871,0.956,-47.401,0.77945,-0.39636,0.18396,-0.44876
C3:16:82:EF:1B:48,1748091865.828129,-3.347,33.581,-0.594,15.557,0.231,-46.675,0.77945,-0.39636,0.18396,-0.44876
C3:16:82:EF:1B:48,1748091865.8291302,-2.634,38.504,-1.585,21.671,-0.769,-46.148,0.77945,-0.39636,0.18396,-0.44876
F3:89:79:49:6C:B3,1748091865.8398278,-2.265,20.609,9.62,6.63,-5.339,-17.435,0.82321,-0.4975,0.13309,-0.23868
F3:89:79:49:6C:B3,1748091865.8412416,-2.265,20.609,9.62,12.409,-6.855,-17.424,0.82321,-0.4975,0.13309,-0.23868
F3:89:79:49:6C:B3,1748091865.842428,-0.771,23.54,10.496,18.386,-8.674,-17.737,0.82321,-0.4975,0.13309,-0.23868
F3:89:79:49:6C:B3,1748091865.8434255,-0.771,23.54,10.496,24.587,-10.75,-18.435,0.96924,0.17035,-0.11136,-0.138
C3:16:82:EF:1B:48,1748091865.8539636,-2.634,38.504,-1.585,27.746,-1.818,-45.736,0.90024,0.19275,-0.09363,-0.37888
C3:16:82:EF:1B:48,1748091865.8549638,-0.594,44.436,1.312,34.233,-3.411,-45.802,0.90024,0.19275,-0.09363,-0.37888
C3:16:82:EF:1B:48,1748091865.855963,-0.594,44.436,1.312,40.693,-4.977,-46.049,0.90024,0.19275,-0.09363,-0.37888
C3:16:82:EF:1B:48,1748091865.8574774,2.078,49.373,8.365,47.241,-6.246,-46.494,0.90024,0.19275,-0.09363,-0.37888
F3:89:79:49:6C:B3,1748091865.8691568,2.203,26.647,11.32,30.905,-12.667,-19.418,0.96924,0.17035,-0.11136,-0.138
F3:89:79:49:6C:B3,1748091865.8691568,8.82,106.595,45.284,37.343,-14.392,-20.676,0.96924,0.17035,-0.11136,-0.138
F3:89:79:49:6C:B3,1748091865.870156,3.706,28.922,12.273,43.698,-15.826,-22.033,0.96924,0.17035,-0.11136,-0.138
F3:89:79:49:6C:B3,1748091865.871157,3.706,28.922,12.273,49.96,-16.952,-23.439,0.96924,0.17035,-0.11136,-0.138
C3:16:82:EF:1B:48,1748091865.8833146,2.078,49.373,8.365,53.767,-7.46,-47.082,0.90024,0.19275,-0.09363,-0.37888
C3:16:82:EF:1B:48,1748091865.8843136,3.108,50.264,12.622,59.963,-8.289,-47.582,0.90024,0.19275,-0.09363,-0.37888
C3:16:82:EF:1B:48,1748091865.8853145,3.108,50.264,12.622,66.132,-9.064,-48.175,0.90024,0.19275,-0.09363,-0.37888
C3:16:82:EF:1B:48,1748091865.8853145,4.367,49.819,11.612,71.955,-9.657,-48.686,0.90024,0.19275,-0.09363,-0.37888
F3:89:79:49:6C:B3,1748091865.9291313,4.678,30.483,13.307,56.085,-17.869,-24.895,0.96924,0.17035,-0.11136,-0.138
F3:89:79:49:6C:B3,1748091865.9749517,4.678,30.483,13.307,62.062,-18.583,-26.362,0.96924,0.17035,-0.11136,-0.138
F3:89:79:49:6C:B3,1748091865.9749517,6.048,29.712,13.968,67.835,-19.122,-27.68,0.96924,0.17035,-0.11136,-0.138
F3:89:79:49:6C:B3,1748091865.9749517,6.048,29.712,13.968,73.389,-19.517,-28.828,0.96924,0.17035,-0.11136,-0.138
C3:16:82:EF:1B:48,1748091865.9875677,4.367,49.819,11.612,77.756,-10.19,-49.263,0.90024,0.19275,-0.09363,-0.37888
C3:16:82:EF:1B:48,1748091865.9875677,5.966,47.994,16.515,83.161,-10.618,-49.422,0.90024,0.19275,-0.09363,-0.37888
C3:16:82:EF:1B:48,1748091865.9885957,5.966,47.994,16.515,88.544,-11.03,-49.642,0.90024,0.19275,-0.09363,-0.37888
C3:16:82:EF:1B:48,1748091865.9885957,5.176,45.835,25.752,92.944,-11.492,-49.356,0.90024,0.19275,-0.09363,-0.37888
F3:89:79:49:6C:B3,1748091865.9895852,7.159,30.799,13.278,78.47,-19.836,-29.685,0.96924,0.17035,-0.11136,-0.138
F3:89:79:49:6C:B3,1748091865.9895852,7.159,30.799,13.278,83.073,-20.127,-30.24,0.96924,0.17035,-0.11136,-0.138
F3:89:79:49:6C:B3,1748091865.990588,5.88,28.582,12.368,87.083,-20.484,-30.729,0.96924,0.17035,-0.11136,-0.138
F3:89:79:49:6C:B3,1748091865.990588,5.88,28.582,12.368,90.516,-20.923,-31.146,0.72021,0.61951,-0.30392,-0.07083
C3:16:82:EF:1B:48,1748091865.9915926,5.176,45.835,25.752,97.317,-11.97,-49.142,0.90024,0.19275,-0.09363,-0.37888
C3:16:82:EF:1B:48,1748091865.992587,5.492,38.053,24.263,100.475,-12.623,-48.944,0.90024,0.19275,-0.09363,-0.37888
C3:16:82:EF:1B:48,1748091865.9932308,5.492,38.053,24.263,103.612,-13.271,-48.807,0.90024,0.19275,-0.09363,-0.37888
C3:16:82:EF:1B:48,1748091865.9932308,4.472,29.324,16.86,105.639,-14.244,-47.895,0.5968,0.68134,-0.38763,-0.17102
F3:89:79:49:6C:B3,1748091865.9932308,5.411,23.487,8.806,93.367,-21.495,-31.168,0.72021,0.61951,-0.30392,-0.07083
F3:89:79:49:6C:B3,1748091865.9932308,5.411,23.487,8.806,95.641,-22.22,-30.789,0.72021,0.61951,-0.30392,-0.07083
F3:89:79:49:6C:B3,1748091865.9932308,4.386,21.945,4.645,97.306,-23.154,-29.619,0.72021,0.61951,-0.30392,-0.07083
F3:89:79:49:6C:B3,1748091865.9932308,4.386,21.945,4.645,98.339,-24.313,-27.636,0.72021,0.61951,-0.30392,-0.07083
C3:16:82:EF:1B:48,1748091865.9932308,4.472,29.324,16.86,107.644,-15.233,-47.038,0.5968,0.68134,-0.38763,-0.17102
C3:16:82:EF:1B:48,1748091865.9932308,0.905,25.685,8.653,108.517,-16.683,-44.687,0.5968,0.68134,-0.38763,-0.17102
C3:16:82:EF:1B:48,1748091865.9932308,0.905,25.685,8.653,109.33,-18.149,-42.363,0.5968,0.68134,-0.38763,-0.17102
C3:16:82:EF:1B:48,1748091865.9932308,-2.212,22.505,-1.839,109.655,-19.742,-39.672,0.5968,0.68134,-0.38763,-0.17102
F3:89:79:49:6C:B3,1748091866.0488865,2.437,20.719,2.045,99.069,-25.565,-25.395,0.72021,0.61951,-0.30392,-0.07083
F3:89:79:49:6C:B3,1748091866.050582,2.437,20.719,2.045,99.476,-26.906,-22.879,0.72021,0.61951,-0.30392,-0.07083
F3:89:79:49:6C:B3,1748091866.0517902,2.892,19.331,-0.23,99.899,-28.262,-20.38,0.72021,0.61951,-0.30392,-0.07083
F3:89:79:49:6C:B3,1748091866.0527947,2.892,19.331,-0.23,100.344,-29.641,-17.891,0.72021,0.61951,-0.30392,-0.07083
C3:16:82:EF:1B:48,1748091866.0646067,-2.212,22.505,-1.839,109.907,-21.341,-36.974,0.5968,0.68134,-0.38763,-0.17102
C3:16:82:EF:1B:48,1748091866.0652447,0.254,20.935,-9.06,110.308,-22.961,-34.31,0.5968,0.68134,-0.38763,-0.17102
C3:16:82:EF:1B:48,1748091866.0662487,0.254,20.935,-9.06,110.638,-24.598,-31.624,0.5968,0.68134,-0.38763,-0.17102
C3:16:82:EF:1B:48,1748091866.0675259,7.092,21.615,-12.871,111.324,-26.516,-29.152,0.5968,0.68134,-0.38763,-0.17102
F3:89:79:49:6C:B3,1748091866.079021,4.243,19.201,-2.279,100.948,-31.152,-15.524,0.72021,0.61951,-0.30392,-0.07083
F3:89:79:49:6C:B3,1748091866.0796654,4.243,19.201,-2.279,101.7,-32.805,-13.271,0.72021,0.61951,-0.30392,-0.07083
F3:89:79:49:6C:B3,1748091866.0796654,5.377,19.901,-1.298,102.706,-34.755,-11.206,0.72021,0.61951,-0.30392,-0.07083
F3:89:79:49:6C:B3,1748091866.0806687,5.377,19.901,-1.298,103.953,-37.013,-9.344,0.72021,0.61951,-0.30392,-0.07083
C3:16:82:EF:1B:48,1748091866.0942552,7.092,21.615,-12.871,111.934,-28.46,-26.653,0.5968,0.68134,-0.38763,-0.17102
C3:16:82:EF:1B:48,1748091866.095257,11.641,25.13,-13.331,113.137,-30.992,-24.565,0.5968,0.68134,-0.38763,-0.17102
C3:16:82:EF:1B:48,1748091866.0962548,11.641,25.13,-13.331,114.263,-33.563,-22.478,0.5968,0.68134,-0.38763,-0.17102
C3:16:82:EF:1B:48,1748091866.0972557,15.39,27.509,-13.494,115.576,-36.92,-20.506,0.5968,0.68134,-0.38763,-0.17102
F3:89:79:49:6C:B3,1748091866.1094942,7.896,20.279,-0.397,105.298,-39.672,-7.548,0.72021,0.61951,-0.30392,-0.07083
F3:89:79:49:6C:B3,1748091866.1094942,7.896,20.279,-0.397,106.743,-42.731,-5.828,0.72021,0.61951,-0.30392,-0.07083
F3:89:79:49:6C:B3,1748091866.110495,6.44,16.879,0.057,108.605,-46.165,-4.653,0.72021,0.61951,-0.30392,-0.07083
F3:89:79:49:6C:B3,1748091866.111497,6.44,16.879,0.057,111.0,-49.966,-4.142,0.72021,0.61951,-0.30392,-0.07083
C3:16:82:EF:1B:48,1748091866.124418,15.39,27.509,-13.494,116.796,-40.303,-18.539,0.5968,0.68134,-0.38763,-0.17102
C3:16:82:EF:1B:48,1748091866.124418,13.388,28.098,-12.876,118.883,-44.363,-17.639,0.5968,0.68134,-0.38763,-0.17102
C3:16:82:EF:1B:48,1748091866.1255345,13.388,28.098,-12.876,121.025,-48.428,-16.886,0.5968,0.68134,-0.38763,-0.17102
C3:16:82:EF:1B:48,1748091866.1265352,4.75,33.208,-9.232,124.003,-52.954,-16.924,0.5968,0.68134,-0.38763,-0.17102
C3:16:82:EF:1B:48,1748091866.1856308,4.75,33.208,-9.232,127.326,-57.453,-17.413,0.5968,0.68134,-0.38763,-0.17102
C3:16:82:EF:1B:48,1748091866.2589538,-2.782,33.591,-6.316,131.259,-62.106,-18.633,0.44971,0.74454,-0.32971,0.36688
C3:16:82:EF:1B:48,1748091866.2599547,-2.782,33.591,-6.316,136.137,-66.671,-20.874,0.44971,0.74454,-0.32971,0.36688
C3:16:82:EF:1B:48,1748091866.260959,-8.638,29.133,-4.937,143.69,-70.659,-25.878,0.44971,0.74454,-0.32971,0.36688
F3:89:79:49:6C:B3,1748091866.260959,5.186,18.043,0.661,113.956,-54.025,-4.213,0.72021,0.61951,-0.30392,-0.07083
F3:89:79:49:6C:B3,1748091866.260959,5.186,18.043,0.661,117.708,-58.304,-5.109,0.49915,0.73734,-0.27481,0.3627
F3:89:79:49:6C:B3,1748091866.2619572,2.471,18.024,2.035,122.141,-62.672,-6.762,0.49915,0.73734,-0.27481,0.3627
F3:89:79:49:6C:B3,1748091866.2629585,2.471,18.024,2.035,127.7,-67.083,-9.602,0.49915,0.73734,-0.27481,0.3627
F3:89:79:49:6C:B3,1748091866.2629585,-0.704,13.824,4.219,135.555,-71.158,-14.832,0.49915,0.73734,-0.27481,0.3627
F3:89:79:49:6C:B3,1748091866.2639556,-0.704,13.824,4.219,147.123,-74.674,-23.846,0.49915,0.73734,-0.27481,0.3627
F3:89:79:49:6C:B3,1748091866.2639556,-3.926,15.05,6.895,163.856,-76.778,-38.029,0.49915,0.73734,-0.27481,0.3627
F3:89:79:49:6C:B3,1748091866.264953,-3.926,15.05,6.895,-176.594,-77.009,-55.02,0.49915,0.73734,-0.27481,0.3627
C3:16:82:EF:1B:48,1748091866.264953,-8.638,29.133,-4.937,154.199,-74.301,-33.865,0.44971,0.74454,-0.32971,0.36688
C3:16:82:EF:1B:48,1748091866.264953,-18.474,29.899,-0.795,169.706,-75.894,-46.675,0.44971,0.74454,-0.32971,0.36688
C3:16:82:EF:1B:48,1748091866.264953,-18.474,29.899,-0.795,-172.562,-76.465,-61.721,0.44971,0.74454,-0.32971,0.36688
C3:16:82:EF:1B:48,1748091866.264953,-21.581,25.23,12.239,-159.598,-75.427,-71.988,0.44971,0.74454,-0.32971,0.36688
F3:89:79:49:6C:B3,1748091866.264953,-4.041,13.862,7.738,-160.626,-75.734,-68.445,0.49915,0.73734,-0.27481,0.3627
F3:89:79:49:6C:B3,1748091866.264953,-4.041,13.862,7.738,-149.919,-73.57,-76.602,0.49915,0.73734,-0.27481,0.3627
F3:89:79:49:6C:B3,1748091866.264953,-3.476,8.126,10.171,-143.086,-71.23,-81.068,0.49915,0.73734,-0.27481,0.3627
F3:89:79:49:6C:B3,1748091866.264953,-3.476,8.126,10.171,-138.889,-68.939,-83.062,0.49915,0.73734,-0.27481,0.3627
C3:16:82:EF:1B:48,1748091866.264953,-21.581,25.23,12.239,-148.563,-73.9,-80.338,0.44971,0.74454,-0.32971,0.36688
C3:16:82:EF:1B:48,1748091866.264953,-13.264,15.28,17.358,-142.674,-72.23,-83.936,0.44971,0.74454,-0.32971,0.36688
C3:16:82:EF:1B:48,1748091866.264953,-13.264,15.28,17.358,-137.637,-70.472,-86.682,0.44971,0.74454,-0.32971,0.36688
C3:16:82:EF:1B:48,1748091866.264953,-7.623,7.168,21.533,-133.094,-69.697,-89.429,0.44971,0.74454,-0.32971,0.36688
F3:89:79:49:6C:B3,1748091866.2895553,-1.087,0.895,13.187,-135.264,-67.055,-84.721,0.49915,0.73734,-0.27481,0.3627
F3:89:79:49:6C:B3,1748091866.2905495,-1.087,0.895,13.187,-131.962,-65.594,-86.27,0.49915,0.73734,-0.27481,0.3627
F3:89:79:49:6C:B3,1748091866.29155,-3.452,0.086,13.613,-128.254,-64.748,-88.682,0.49915,0.73734,-0.27481,0.3627
F3:89:79:49:6C:B3,1748091866.2925472,-3.452,0.086,13.613,-123.997,-64.451,-92.076,0.49915,0.73734,-0.27481,0.3627
C3:16:82:EF:1B:48,1748091866.3050656,-7.623,7.168,21.533,-128.837,-68.873,-91.895,0.44971,0.74454,-0.32971,0.36688
C3:16:82:EF:1B:48,1748091866.3060596,-11.875,4.568,27.083,-123.92,-69.192,-96.01,0.44971,0.74454,-0.32971,0.36688
C3:16:82:EF:1B:48,1748091866.306464,-11.875,4.568,27.083,-118.894,-69.417,-100.245,0.44971,0.74454,-0.32971,0.36688
C3:16:82:EF:1B:48,1748091866.3079755,-13.527,-0.259,25.719,-116.389,-69.708,-102.645,0.44971,0.74454,-0.32971,0.36688
F3:89:79:49:6C:B3,1748091866.3197749,-4.266,-2.658,15.663,-120.817,-64.182,-94.763,0.49915,0.73734,-0.27481,0.3627
F3:89:79:49:6C:B3,1748091866.3207788,-4.266,-2.658,15.663,-115.944,-64.034,-98.586,0.49915,0.73734,-0.27481,0.3627
F3:89:79:49:6C:B3,1748091866.322639,-1.456,-3.85,14.356,-111.94,-63.918,-101.849,0.49915,0.73734,-0.27481,0.3627
F3:89:79:49:6C:B3,1748091866.3232472,-1.456,-3.85,14.356,-108.754,-63.902,-104.595,0.04129,0.67313,-0.3591,0.64508
C3:16:82:EF:1B:48,1748091866.3347745,-13.527,-0.259,25.719,-113.78,-69.988,-105.145,0.44971,0.74454,-0.32971,0.36688
C3:16:82:EF:1B:48,1748091866.3357677,-8.088,-1.183,25.618,-113.159,-70.609,-106.216,0.44971,0.74454,-0.32971,0.36688
C3:16:82:EF:1B:48,1748091866.3367703,-8.088,-1.183,25.618,-112.423,-71.246,-107.402,0.44971,0.74454,-0.32971,0.36688
C3:16:82:EF:1B:48,1748091866.3377733,-0.962,-0.407,20.897,-112.505,-71.537,-108.034,0.12253,0.66095,-0.35269,0.65088
F3:89:79:49:6C:B3,1748091866.3488326,1.767,-3.112,11.578,-106.469,-63.891,-106.765,0.04129,0.67313,-0.3591,0.64508
F3:89:79:49:6C:B3,1748091866.3498313,1.767,-3.112,11.578,-105.068,-63.929,-108.369,0.04129,0.67313,-0.3591,0.64508
F3:89:79:49:6C:B3,1748091866.3508313,4.999,-2.212,8.26,-103.716,-64.034,-110.187,0.04129,0.67313,-0.3591,0.64508
F3:89:79:49:6C:B3,1748091866.3518312,4.999,-2.212,8.26,-102.393,-64.21,-112.225,0.04129,0.67313,-0.3591,0.64508
C3:16:82:EF:1B:48,1748091866.3637762,-0.962,-0.407,20.897,-111.165,-71.406,-109.709,0.12253,0.66095,-0.35269,0.65088
C3:16:82:EF:1B:48,1748091866.3651264,5.037,0.364,12.929,-109.77,-71.51,-111.918,0.12253,0.66095,-0.35269,0.65088
C3:16:82:EF:1B:48,1748091866.3657703,5.037,0.364,12.929,-108.397,-71.592,-114.088,0.12253,0.66095,-0.35269,0.65088
C3:16:82:EF:1B:48,1748091866.3657703,7.518,-1.087,4.578,-106.974,-71.669,-116.455,0.12253,0.66095,-0.35269,0.65088
F3:89:79:49:6C:B3,1748091866.4098806,6.33,-2.83,5.32,-101.085,-64.358,-114.34,0.04129,0.67313,-0.3591,0.64508
F3:89:79:49:6C:B3,1748091866.467087,6.33,-2.83,5.32,-99.794,-64.479,-116.526,0.04129,0.67313,-0.3591,0.64508
F3:89:79:49:6C:B3,1748091866.467087,6.215,-4.314,3.486,-98.712,-64.528,-118.389,0.04129,0.67313,-0.3591,0.64508
F3:89:79:49:6C:B3,1748091866.4691021,6.215,-4.314,3.486,-97.861,-64.523,-119.905,0.04129,0.67313,-0.3591,0.64508
C3:16:82:EF:1B:48,1748091866.4691021,7.518,-1.087,4.578,-105.573,-71.724,-118.779,0.12253,0.66095,-0.35269,0.65088
C3:16:82:EF:1B:48,1748091866.4691021,8.159,-3.563,-1.331,-104.788,-71.592,-120.196,0.12253,0.66095,-0.35269,0.65088
C3:16:82:EF:1B:48,1748091866.4691021,8.159,-3.563,-1.331,-104.057,-71.461,-121.547,0.12253,0.66095,-0.35269,0.65088
C3:16:82:EF:1B:48,1748091866.4711154,10.046,-5.018,-1.724,-106.002,-71.955,-120.712,0.12253,0.66095,-0.35269,0.65088
F3:89:79:49:6C:B3,1748091866.4711154,7.614,-5.669,2.686,-97.399,-64.435,-120.8,0.04129,0.67313,-0.3591,0.64508
F3:89:79:49:6C:B3,1748091866.4711154,7.614,-5.669,2.686,-97.35,-64.281,-121.058,0.04129,0.67313,-0.3591,0.64508
F3:89:79:49:6C:B3,1748091866.4711154,8.959,-5.914,1.274,-97.718,-63.968,-120.619,0.04129,0.67313,-0.3591,0.64508
F3:89:79:49:6C:B3,1748091866.4731255,8.959,-5.914,1.274,-98.146,-63.677,-120.108,0.04129,0.67313,-0.3591,0.64508
C3:16:82:EF:1B:48,1748091866.4731255,10.046,-5.018,-1.724,-107.963,-72.416,-119.888,0.12253,0.66095,-0.35269,0.65088
C3:16:82:EF:1B:48,1748091866.4731255,12.124,-4.875,0.728,-110.264,-72.598,-118.526,0.12253,0.66095,-0.35269,0.65088
C3:16:82:EF:1B:48,1748091866.4742768,12.124,-4.875,0.728,-112.511,-72.724,-117.263,0.12253,0.66095,-0.35269,0.65088
C3:16:82:EF:1B:48,1748091866.4752827,12.833,-3.965,1.657,-113.862,-72.773,-116.906,0.12253,0.66095,-0.35269,0.65088
F3:89:79:49:6C:B3,1748091866.4760919,10.467,-5.152,0.958,-98.372,-63.265,-119.751,0.04129,0.67313,-0.3591,0.64508
F3:89:79:49:6C:B3,1748091866.4760919,10.467,-5.152,0.958,-98.641,-62.88,-119.344,0.04129,0.67313,-0.3591,0.64508
F3:89:79:49:6C:B3,1748091866.4760919,10.319,-4.851,0.527,-98.102,-62.435,-119.839,0.04129,0.67313,-0.3591,0.64508
F3:89:79:49:6C:B3,1748091866.4760919,10.319,-4.851,0.527,-97.63,-62.012,-120.273,0.04129,0.67313,-0.3591,0.64508
C3:16:82:EF:1B:48,1748091866.545284,12.833,-3.965,1.657,-115.126,-72.79,-116.658,0.12253,0.66095,-0.35269,0.65088
C3:16:82:EF:1B:48,1748091866.546282,12.464,-3.649,2.136,-115.016,-72.878,-117.922,0.12253,0.66095,-0.35269,0.65088
C3:16:82:EF:1B:48,1748091866.5466592,12.464,-3.649,2.136,-114.225,-72.729,-119.213,0.12253,0.66095,-0.35269,0.65088
C3:16:82:EF:1B:48,1748091866.5488327,9.95,-5.037,1.173,-111.978,-72.422,-121.328,0.12253,0.66095,-0.35269,0.65088
C3:16:82:EF:1B:48,1748091866.5488327,9.95,-5.037,1.173,-109.858,-72.109,-123.311,0.12253,0.66095,-0.35269,0.65088
C3:16:82:EF:1B:48,1748091866.5508304,6.115,-5.152,2.217,-108.468,-71.675,-124.448,0.12253,0.66095,-0.35269,0.65088
C3:16:82:EF:1B:48,1748091866.5508304,6.115,-5.152,2.217,-107.177,-71.23,-125.491,0.12253,0.66095,-0.35269,0.65088
C3:16:82:EF:1B:48,1748091866.5528338,4.075,-4.803,3.682,-107.369,-70.653,-124.969,0.12253,0.66095,-0.35269,0.65088
F3:89:79:49:6C:B3,1748091866.5600457,8.921,-5.914,1.657,-96.564,-61.54,-121.36,0.04129,0.67313,-0.3591,0.64508
F3:89:79:49:6C:B3,1748091866.5610468,8.921,-5.914,1.657,-95.576,-61.062,-122.382,0.04129,0.67313,-0.3591,0.64508
F3:89:79:49:6C:B3,1748091866.5620503,6.709,-6.067,2.179,-94.922,-60.557,-122.97,0.04129,0.67313,-0.3591,0.64508
F3:89:79:49:6C:B3,1748091866.5626106,6.709,-6.067,2.179,-94.318,-60.046,-123.508,0.04129,0.67313,-0.3591,0.64508
F3:89:79:49:6C:B3,1748091866.5637555,5.559,-5.799,2.03,-94.658,-59.568,-123.003,0.04459,0.6001,-0.39825,0.69223
F3:89:79:49:6C:B3,1748091866.565108,5.559,-5.799,2.03,-95.004,-59.09,-122.492,0.04459,0.6001,-0.39825,0.69223
F3:89:79:49:6C:B3,1748091866.5657542,5.617,-5.363,0.986,-95.565,-58.744,-121.855,0.04459,0.6001,-0.39825,0.69223
F3:89:79:49:6C:B3,1748091866.5657542,5.617,-5.363,0.986,-96.13,-58.398,-121.218,0.04459,0.6001,-0.39825,0.69223
C3:16:82:EF:1B:48,1748091866.57477,4.075,-4.803,3.682,-107.578,-70.065,-124.442,0.12253,0.66095,-0.35269,0.65088
C3:16:82:EF:1B:48,1748091866.5758946,3.256,-4.472,3.663,-108.034,-69.609,-123.766,0.12253,0.66095,-0.35269,0.65088
C3:16:82:EF:1B:48,1748091866.576897,3.256,-4.472,3.663,-108.495,-69.148,-123.102,0.17792,0.60934,-0.42874,0.64273
C3:16:82:EF:1B:48,1748091866.5778952,2.437,-5.89,0.124,-108.743,-68.939,-122.734,0.17792,0.60934,-0.42874,0.64273
F3:89:79:49:6C:B3,1748091866.618597,5.1,-6.225,0.259,-96.438,-58.255,-120.97,0.04459,0.6001,-0.39825,0.69223
F3:89:79:49:6C:B3,1748091866.7105346,5.1,-6.225,0.259,-96.762,-58.112,-120.707,0.04459,0.6001,-0.39825,0.69223
F3:89:79:49:6C:B3,1748091866.711531,5.511,-5.918,-0.627,-96.938,-58.2,-120.531,0.04459,0.6001,-0.39825,0.69223
F3:89:79:49:6C:B3,1748091866.7125356,5.511,-5.918,-0.627,-97.13,-58.288,-120.339,0.04459,0.6001,-0.39825,0.69223
C3:16:82:EF:1B:48,1748091866.7125356,2.437,-5.89,0.124,-109.023,-68.736,-122.349,0.17792,0.60934,-0.42874,0.64273
C3:16:82:EF:1B:48,1748091866.7135353,2.567,-5.416,-2.255,-109.319,-68.763,-121.827,0.17792,0.60934,-0.42874,0.64273
C3:16:82:EF:1B:48,1748091866.714535,2.567,-5.416,-2.255,-109.66,-68.796,-121.278,0.17792,0.60934,-0.42874,0.64273
C3:16:82:EF:1B:48,1748091866.714535,6.565,-4.161,-2.878,-110.363,-68.945,-120.196,0.17792,0.60934,-0.42874,0.64273
F3:89:79:49:6C:B3,1748091866.71553,7.254,-4.626,-1.255,-97.449,-58.568,-119.866,0.04459,0.6001,-0.39825,0.69223
F3:89:79:49:6C:B3,1748091866.71553,7.254,-4.626,-1.255,-97.784,-58.854,-119.383,0.04459,0.6001,-0.39825,0.69223
F3:89:79:49:6C:B3,1748091866.71653,9.419,-4.86,-1.068,-98.311,-59.139,-118.526,0.04459,0.6001,-0.39825,0.69223
F3:89:79:49:6C:B3,1748091866.71653,9.419,-4.86,-1.068,-98.855,-59.436,-117.653,0.04459,0.6001,-0.39825,0.69223
C3:16:82:EF:1B:48,1748091866.71653,6.565,-4.161,-2.878,-111.11,-69.109,-119.097,0.17792,0.60934,-0.42874,0.64273
C3:16:82:EF:1B:48,1748091866.71753,11.77,-4.343,-2.792,-112.094,-69.197,-117.57,0.17792,0.60934,-0.42874,0.64273
C3:16:82:EF:1B:48,1748091866.71753,11.77,-4.343,-2.792,-113.104,-69.302,-116.043,0.17792,0.60934,-0.42874,0.64273
C3:16:82:EF:1B:48,1748091866.718535,14.102,-3.553,-0.675,-113.566,-69.34,-114.977,0.17792,0.60934,-0.42874,0.64273
F3:89:79:49:6C:B3,1748091866.718535,11.004,-4.606,-0.91,-99.163,-59.612,-116.906,0.04459,0.6001,-0.39825,0.69223
F3:89:79:49:6C:B3,1748091866.7195327,11.004,-4.606,-0.91,-99.481,-59.799,-116.158,0.04459,0.6001,-0.39825,0.69223
F3:89:79:49:6C:B3,1748091866.7195327,11.037,-4.161,-1.077,-99.569,-59.843,-115.681,0.04459,0.6001,-0.39825,0.69223
F3:89:79:49:6C:B3,1748091866.7205303,11.037,-4.161,-1.077,-99.657,-59.892,-115.197,0.04459,0.6001,-0.39825,0.69223
C3:16:82:EF:1B:48,1748091866.7205303,14.102,-3.553,-0.675,-114.022,-69.395,-113.923,0.17792,0.60934,-0.42874,0.64273
C3:16:82:EF:1B:48,1748091866.7215335,13.47,-3.314,0.555,-114.016,-69.373,-113.406,0.17792,0.60934,-0.42874,0.64273
C3:16:82:EF:1B:48,1748091866.7225318,13.47,-3.314,0.555,-114.005,-69.362,-112.901,0.17792,0.60934,-0.42874,0.64273
C3:16:82:EF:1B:48,1748091866.7225318,9.888,-4.233,-0.048,-113.439,-69.373,-113.005,0.17792,0.60934,-0.42874,0.64273
F3:89:79:49:6C:B3,1748091866.739861,9.51,-4.946,-0.733,-99.36,-59.875,-115.17,0.04459,0.6001,-0.39825,0.69223
F3:89:79:49:6C:B3,1748091866.7408795,9.51,-4.946,-0.733,-99.069,-59.859,-115.142,0.04459,0.6001,-0.39825,0.69223
F3:89:79:49:6C:B3,1748091866.7428904,7.915,-4.726,-0.718,-98.751,-59.886,-115.148,0.04459,0.6001,-0.39825,0.69223
F3:89:79:49:6C:B3,1748091866.7438774,7.915,-4.726,-0.718,-98.438,-59.908,-115.148,0.04459,0.6001,-0.39825,0.69223
C3:16:82:EF:1B:48,1748091866.7539146,9.888,-4.233,-0.048,-112.874,-69.384,-113.11,0.17792,0.60934,-0.42874,0.64273
C3:16:82:EF:1B:48,1748091866.7559307,6.096,-4.099,-0.397,-112.407,-69.445,-113.115,0.17792,0.60934,-0.42874,0.64273
C3:16:82:EF:1B:48,1748091866.756934,6.096,-4.099,-0.397,-111.94,-69.5,-113.121,0.17792,0.60934,-0.42874,0.64273
C3:16:82:EF:1B:48,1748091866.7579339,6.187,-3.505,-0.134,-111.967,-69.604,-112.577,0.17792,0.60934,-0.42874,0.64273
F3:89:79:49:6C:B3,1748091866.7698963,7.585,-4.123,-0.436,-98.372,-60.051,-114.851,0.04459,0.6001,-0.39825,0.69223
F3:89:79:49:6C:B3,1748091866.771903,7.585,-4.123,-0.436,-98.311,-60.194,-114.549,0.04459,0.6001,-0.39825,0.69223
F3:89:79:49:6C:B3,1748091866.7729034,8.437,-4.439,0.005,-98.487,-60.386,-113.961,0.04459,0.6001,-0.39825,0.69223
F3:89:79:49:6C:B3,1748091866.7741857,8.437,-4.439,0.005,-98.657,-60.579,-113.368,0.01129,0.63321,-0.36838,0.68051
C3:16:82:EF:1B:48,1748091866.7851453,6.187,-3.505,-0.134,-111.995,-69.703,-112.028,0.17792,0.60934,-0.42874,0.64273
C3:16:82:EF:1B:48,1748091866.785782,9.117,-3.721,0.048,-112.313,-69.796,-111.138,0.17792,0.60934,-0.42874,0.64273
C3:16:82:EF:1B:48,1748091866.7866201,9.117,-3.721,0.048,-112.632,-69.884,-110.248,0.17792,0.60934,-0.42874,0.64273
C3:16:82:EF:1B:48,1748091866.7878935,9.802,-3.223,0.57,-112.83,-69.961,-109.451,0.12964,0.65182,-0.37601,0.64563
F3:89:79:49:6C:B3,1748091866.798792,9.064,-4.118,0.053,-98.767,-60.749,-112.819,0.01129,0.63321,-0.36838,0.68051
F3:89:79:49:6C:B3,1748091866.8007905,9.064,-4.118,0.053,-98.871,-60.925,-112.269,0.01129,0.63321,-0.36838,0.68051
F3:89:79:49:6C:B3,1748091866.8019676,9.318,-3.912,0.072,-99.042,-61.068,-111.643,0.01129,0.63321,-0.36838,0.68051
F3:89:79:49:6C:B3,1748091866.8025167,9.318,-3.912,0.072,-99.207,-61.205,-111.022,0.01129,0.63321,-0.36838,0.68051
C3:16:82:EF:1B:48,1748091866.8423219,9.802,-3.223,0.57,-113.022,-70.043,-108.666,0.12964,0.65182,-0.37601,0.64563
C3:16:82:EF:1B:48,1748091866.9232101,10.391,-3.045,1.173,-113.291,-70.076,-107.792,0.12964,0.65182,-0.37601,0.64563
C3:16:82:EF:1B:48,1748091866.9242074,10.391,-3.045,1.173,-113.544,-70.104,-106.924,0.12964,0.65182,-0.37601,0.64563
C3:16:82:EF:1B:48,1748091866.9242074,11.349,-3.457,1.671,-113.483,-70.126,-106.43,0.12964,0.65182,-0.37601,0.64563
F3:89:79:49:6C:B3,1748091866.925211,9.73,-4.329,0.206,-99.278,-61.293,-110.539,0.01129,0.63321,-0.36838,0.68051
F3:89:79:49:6C:B3,1748091866.925211,9.73,-4.329,0.206,-99.349,-61.375,-110.056,0.01129,0.63321,-0.36838,0.68051
F3:89:79:49:6C:B3,1748091866.9262037,9.261,-4.559,0.393,-99.25,-61.397,-109.819,0.01129,0.63321,-0.36838,0.68051
F3:89:79:49:6C:B3,1748091866.9262037,9.261,-4.559,0.393,-99.146,-61.419,-109.583,0.01129,0.63321,-0.36838,0.68051
C3:16:82:EF:1B:48,1748091866.9262037,11.349,-3.457,1.671,-113.406,-70.148,-105.947,0.12964,0.65182,-0.37601,0.64563
C3:16:82:EF:1B:48,1748091866.9262037,10.324,-3.548,2.342,-113.143,-70.131,-105.71,0.12964,0.65182,-0.37601,0.64563
C3:16:82:EF:1B:48,1748091866.9262037,10.324,-3.548,2.342,-112.868,-70.109,-105.48,0.12964,0.65182,-0.37601,0.64563
C3:16:82:EF:1B:48,1748091866.9262037,8.418,-3.357,2.274,-112.632,-70.082,-105.293,0.12964,0.65182,-0.37601,0.64563
F3:89:79:49:6C:B3,1748091866.9262037,8.657,-4.319,0.35,-99.108,-61.414,-109.363,0.01129,0.63321,-0.36838,0.68051
F3:89:79:49:6C:B3,1748091866.9262037,8.657,-4.319,0.35,-99.069,-61.403,-109.144,0.01129,0.63321,-0.36838,0.68051
F3:89:79:49:6C:B3,1748091866.9262037,7.992,-4.257,0.091,-98.932,-61.452,-109.111,0.01129,0.63321,-0.36838,0.68051
F3:89:79:49:6C:B3,1748091866.9262037,3.994,-2.126,0.043,-98.795,-61.501,-109.078,0.01129,0.63321,-0.36838,0.68051
C3:16:82:EF:1B:48,1748091866.9262037,8.418,-3.357,2.274,-112.39,-70.049,-105.106,0.12964,0.65182,-0.37601,0.64563
C3:16:82:EF:1B:48,1748091866.9262037,7.034,-3.539,1.063,-112.083,-70.104,-105.062,0.12964,0.65182,-0.37601,0.64563
C3:16:82:EF:1B:48,1748091866.9262037,7.034,-3.539,1.063,-111.775,-70.153,-105.018,0.12964,0.65182,-0.37601,0.64563
C3:16:82:EF:1B:48,1748091866.9262037,7.13,-3.84,-0.335,-111.61,-70.263,-104.821,0.12964,0.65182,-0.37601,0.64563
F3:89:79:49:6C:B3,1748091866.9262037,7.882,-4.401,-0.215,-98.701,-61.622,-109.001,0.01129,0.63321,-0.36838,0.68051
F3:89:79:49:6C:B3,1748091866.9262037,7.882,-4.401,-0.215,-98.613,-61.743,-108.918,0.01129,0.63321,-0.36838,0.68051
F3:89:79:49:6C:B3,1748091866.9262037,8.246,-4.42,-0.287,-98.619,-61.919,-108.671,0.01129,0.63321,-0.36838,0.68051
F3:89:79:49:6C:B3,1748091866.9262037,8.246,-4.42,-0.287,-98.624,-62.089,-108.43,0.01129,0.63321,-0.36838,0.68051
C3:16:82:EF:1B:48,1748091866.9262037,7.13,-3.84,-0.335,-111.451,-70.373,-104.628,0.12964,0.65182,-0.37601,0.64563
C3:16:82:EF:1B:48,1748091866.9262037,8.135,-3.759,-0.771,-111.478,-70.499,-104.172,0.12964,0.65182,-0.37601,0.64563
C3:16:82:EF:1B:48,1748091866.9262037,8.135,-3.759,-0.771,-111.511,-70.626,-103.711,0.12964,0.65182,-0.37601,0.64563
C3:16:82:EF:1B:48,1748091866.9262037,9.543,-3.419,-0.321,-111.572,-70.746,-103.178,0.12964,0.65182,-0.37601,0.64563
F3:89:79:49:6C:B3,1748091866.9747522,8.787,-4.152,-0.326,-98.679,-62.265,-108.073,0.01129,0.63321,-0.36838,0.68051
F3:89:79:49:6C:B3,1748091866.9747522,8.787,-4.152,-0.326,-98.729,-62.446,-107.715,0.01129,0.63321,-0.36838,0.68051
F3:89:79:49:6C:B3,1748091866.9747522,9.069,-4.175,-0.115,-98.613,-62.6,-107.507,0.01129,0.63321,-0.36838,0.68051
F3:89:79:49:6C:B3,1748091866.9747522,9.069,-4.175,-0.115,-98.492,-62.759,-107.298,0.01129,0.63321,-0.36838,0.68051
C3:16:82:EF:1B:48,1748091866.991874,9.543,-3.419,-0.321,-111.632,-70.867,-102.64,0.12964,0.65182,-0.37601,0.64563
C3:16:82:EF:1B:48,1748091866.991874,5.004,-1.705,0.124,-111.445,-70.988,-102.343,0.12964,0.65182,-0.37601,0.64563
C3:16:82:EF:1B:48,1748091866.991874,5.004,-1.705,0.124,-111.259,-71.115,-102.052,0.12964,0.65182,-0.37601,0.64563
C3:16:82:EF:1B:48,1748091866.991874,9.428,-3.184,0.948,-111.006,-71.213,-101.799,0.12964,0.65182,-0.37601,0.64563
F3:89:79:49:6C:B3,1748091867.0095797,9.069,-4.108,0.283,-98.328,-62.886,-107.117,-0.01321,0.65744,-0.31802,0.68292
F3:89:79:49:6C:B3,1748091867.0095797,9.069,-4.108,0.283,-98.163,-63.012,-106.935,-0.01321,0.65744,-0.31802,0.68292
F3:89:79:49:6C:B3,1748091867.0095797,9.021,-3.955,0.426,-98.13,-63.122,-106.622,-0.01321,0.65744,-0.31802,0.68292
F3:89:79:49:6C:B3,1748091867.0095797,9.021,-3.955,0.426,-98.091,-63.237,-106.309,-0.01321,0.65744,-0.31802,0.68292
C3:16:82:EF:1B:48,1748091867.0242615,9.428,-3.184,0.948,-110.753,-71.312,-101.552,0.08084,0.67889,-0.31027,0.66043
C3:16:82:EF:1B:48,1748091867.0262454,9.419,-3.132,1.504,-110.715,-71.373,-101.085,0.08084,0.67889,-0.31027,0.66043
C3:16:82:EF:1B:48,1748091867.0262454,9.419,-3.132,1.504,-110.671,-71.428,-100.624,0.08084,0.67889,-0.31027,0.66043
C3:16:82:EF:1B:48,1748091867.0282466,9.883,-3.112,2.011,-110.676,-71.461,-100.129,0.08084,0.67889,-0.31027,0.66043
F3:89:79:49:6C:B3,1748091867.0397305,9.266,-4.118,0.603,-98.168,-63.331,-105.903,-0.01321,0.65744,-0.31802,0.68292
F3:89:79:49:6C:B3,1748091867.0410118,9.266,-4.118,0.603,-98.24,-63.424,-105.502,-0.01321,0.65744,-0.31802,0.68292
F3:89:79:49:6C:B3,1748091867.0420115,9.352,-4.08,0.532,-98.273,-63.495,-105.205,-0.01321,0.65744,-0.31802,0.68292
F3:89:79:49:6C:B3,1748091867.0430102,9.352,-4.08,0.532,-98.306,-63.572,-104.908,-0.01321,0.65744,-0.31802,0.68292
C3:16:82:EF:1B:48,1748091867.0915983,9.883,-3.112,2.011,-110.671,-71.499,-99.646,0.08084,0.67889,-0.31027,0.66043
C3:16:82:EF:1B:48,1748091867.0915983,9.926,-3.074,2.399,-110.583,-71.526,-99.311,0.08084,0.67889,-0.31027,0.66043
C3:16:82:EF:1B:48,1748091867.0915983,9.926,-3.074,2.399,-110.479,-71.559,-98.981,0.08084,0.67889,-0.31027,0.66043
C3:16:82:EF:1B:48,1748091867.0915983,9.28,-3.179,1.882,-110.094,-71.636,-99.014,0.08084,0.67889,-0.31027,0.66043
