timestamp,AccX,AccY,AccZ,AngX,AngY,AngZ,AsX,AsY,AsZ,Q0,Q1,Q2,Q3
1746916793.5354612,0.077,0.038,10.056,0.242,-0.467,-35.228,0.95306,0.00079,-0.00455,-0.30258
1746916793.536971,0.077,0.038,10.056,0.242,-0.467,-35.228,0.95306,0.00079,-0.00455,-0.30258
1746916793.5379791,0.077,0.038,10.056,0.242,-0.467,-35.228,0.95306,0.00079,-0.00455,-0.30258
1746916793.5379791,0.077,0.038,10.056,0.242,-0.467,-35.228,0.95306,0.00079,-0.00455,-0.30258
1746916793.569368,0.077,0.043,10.07,0.242,-0.467,-35.228,0.95306,0.00079,-0.00455,-0.30258
1746916793.5703697,0.077,0.043,10.07,0.242,-0.467,-35.228,0.95306,0.00079,-0.00455,-0.30258
1746916793.571372,0.077,0.034,10.051,0.242,-0.467,-35.228,0.95306,0.00079,-0.00455,-0.30258
1746916793.5723712,0.077,0.034,10.051,0.242,-0.467,-35.228,0.95306,0.00079,-0.00455,-0.30258
1746916793.5733774,0.091,0.034,10.08,0.242,-0.467,-35.228,0.95306,0.00079,-0.00455,-0.30258
1746916793.5743737,0.091,0.034,10.08,0.242,-0.467,-35.228,0.95306,0.00079,-0.00455,-0.30258
1746916793.5753756,0.101,0.043,10.089,0.242,-0.467,-35.228,0.95306,0.00079,-0.00455,-0.30258
1746916793.5763745,0.101,0.043,10.089,0.242,-0.467,-35.228,0.95306,0.00079,-0.00455,-0.30258
1746916793.6304786,0.091,0.048,10.046,0.242,-0.467,-35.228,0.95306,0.00079,-0.00455,-0.30258
1746916793.63148,0.091,0.048,10.046,0.242,-0.467,-35.228,0.95306,0.00079,-0.00455,-0.30258
1746916793.6324854,0.072,0.048,10.051,0.242,-0.467,-35.228,0.95306,0.00079,-0.00455,-0.30258
1746916793.633489,0.072,0.048,10.051,0.242,-0.467,-35.228,0.95306,0.00079,-0.00455,-0.30258
1746916793.6590958,0.057,0.043,10.075,0.242,-0.467,-35.228,0.95306,0.00079,-0.00455,-0.30258
1746916793.661089,0.057,0.043,10.075,0.242,-0.467,-35.228,0.95306,0.00079,-0.00455,-0.30258
1746916793.661089,0.072,0.034,10.06,0.242,-0.467,-35.228,0.95306,0.00079,-0.00455,-0.30258
1746916793.6630888,0.072,0.034,10.06,0.242,-0.467,-35.228,0.95306,0.00079,-0.00455,-0.30258
1746916793.720024,0.081,0.029,10.041,0.242,-0.467,-35.228,0.95306,0.00079,-0.00455,-0.30258
1746916793.819582,0.081,0.029,10.041,0.242,-0.467,-35.228,0.95306,0.00079,-0.00455,-0.30258
1746916793.8205788,0.086,0.038,10.089,0.242,-0.467,-35.228,0.95306,0.00079,-0.00455,-0.30258
1746916793.838128,0.086,0.038,10.089,0.242,-0.467,-35.228,0.95306,0.00079,-0.00455,-0.30258
1746916793.8391385,0.081,0.043,10.065,0.242,-0.467,-35.228,0.95306,0.00079,-0.00455,-0.30258
1746916793.8391385,0.081,0.043,10.065,0.242,-0.467,-35.228,0.95306,0.00079,-0.00455,-0.30258
1746916793.840132,0.077,0.034,10.051,0.242,-0.467,-35.228,0.95306,0.00079,-0.00455,-0.30258
1746916793.840132,0.077,0.034,10.051,0.242,-0.467,-35.228,0.95306,0.00079,-0.00455,-0.30258
1746916793.8411293,0.086,0.043,10.065,0.242,-0.467,-35.228,0.95306,0.00079,-0.00455,-0.30258
1746916793.8421369,0.086,0.043,10.065,0.242,-0.467,-35.228,0.95306,0.00079,-0.00455,-0.30258
1746916793.8421369,0.077,0.048,10.07,0.242,-0.467,-35.228,0.95306,0.00079,-0.00455,-0.30258
1746916793.8431349,0.077,0.048,10.07,0.242,-0.467,-35.228,0.95306,0.00079,-0.00455,-0.30258
1746916793.8441367,0.081,0.043,10.046,0.242,-0.467,-35.228,0.95306,0.00079,-0.00455,-0.30258
1746916793.8441367,0.081,0.043,10.046,0.242,-0.467,-35.228,0.95306,0.00079,-0.00455,-0.30258
1746916793.845136,0.077,0.034,10.06,0.242,-0.467,-35.228,0.95306,0.00079,-0.00455,-0.30258
1746916793.845136,0.077,0.034,10.06,0.242,-0.467,-35.228,0.95306,0.00079,-0.00455,-0.30258
1746916793.8682935,0.081,0.024,10.07,0.242,-0.467,-35.228,0.95306,0.00079,-0.00455,-0.30258
1746916793.869294,0.081,0.024,10.07,0.242,-0.467,-35.228,0.95306,0.00079,-0.00455,-0.30258
1746916793.8702962,0.072,0.038,10.056,0.242,-0.467,-35.228,0.95306,0.00079,-0.00455,-0.30258
1746916793.8702962,0.072,0.038,10.056,0.242,-0.467,-35.228,0.95306,0.00079,-0.00455,-0.30258
1746916793.89972,0.081,0.043,10.046,0.242,-0.467,-35.228,0.95306,0.00079,-0.00455,-0.30258
1746916793.9006784,0.081,0.043,10.046,0.242,-0.467,-35.228,0.95306,0.00079,-0.00455,-0.30258
1746916793.901674,0.077,0.053,10.07,0.242,-0.467,-35.228,0.95306,0.00079,-0.00455,-0.30258
1746916793.9026685,0.077,0.053,10.07,0.242,-0.467,-35.228,0.95306,0.00079,-0.00455,-0.30258
1746916793.9599097,0.086,0.048,10.065,0.242,-0.467,-35.228,0.95306,0.00079,-0.00455,-0.30258
1746916793.9619086,0.086,0.048,10.065,0.242,-0.467,-35.228,0.95306,0.00079,-0.00455,-0.30258
1746916793.9629076,0.086,0.043,10.06,0.242,-0.467,-35.228,0.95306,0.00079,-0.00455,-0.30258
1746916793.9639075,0.086,0.043,10.06,0.242,-0.467,-35.228,0.95306,0.00079,-0.00455,-0.30258
1746916793.989906,0.081,0.038,10.065,0.242,-0.467,-35.228,0.95306,0.00079,-0.00455,-0.30258
1746916793.9919066,0.081,0.038,10.065,0.242,-0.467,-35.228,0.95306,0.00079,-0.00455,-0.30258
1746916793.9929156,0.081,0.029,10.075,0.242,-0.467,-35.228,0.95306,0.00079,-0.00455,-0.30258
1746916793.9949079,0.081,0.029,10.075,0.242,-0.467,-35.228,0.95306,0.00079,-0.00455,-0.30258
1746916794.0199091,0.077,0.024,10.051,0.242,-0.467,-35.228,0.95306,0.00079,-0.00455,-0.30258
1746916794.0209072,0.077,0.024,10.051,0.242,-0.467,-35.228,0.95306,0.00079,-0.00455,-0.30258
1746916794.0219107,0.067,0.034,10.051,0.242,-0.467,-35.228,0.95306,0.00076,-0.00455,-0.30258
1746916794.0229242,0.067,0.034,10.051,0.242,-0.467,-35.228,0.95306,0.00076,-0.00455,-0.30258
1746916794.079902,0.077,0.053,10.06,0.242,-0.467,-35.228,0.95306,0.00076,-0.00455,-0.30258
1746916794.20245,0.077,0.053,10.06,0.242,-0.467,-35.228,0.95306,0.00076,-0.00455,-0.30258
1746916794.203448,0.077,0.043,10.051,0.242,-0.467,-35.228,0.95306,0.00076,-0.00455,-0.30258
1746916794.203448,0.077,0.043,10.051,0.242,-0.467,-35.228,0.95306,0.00076,-0.00455,-0.30258
1746916794.20445,0.086,0.043,10.056,0.242,-0.467,-35.228,0.95306,0.00076,-0.00455,-0.30258
1746916794.2054482,0.086,0.043,10.056,0.242,-0.467,-35.228,0.95306,0.00076,-0.00455,-0.30258
1746916794.2054482,0.091,0.048,10.08,0.242,-0.467,-35.228,0.95306,0.00076,-0.00455,-0.30258
1746916794.2054482,0.091,0.048,10.08,0.242,-0.467,-35.228,0.95306,0.00076,-0.00455,-0.30258
1746916794.2064443,0.091,0.034,10.075,0.242,-0.467,-35.228,0.95306,0.00076,-0.00455,-0.30258
1746916794.2064443,0.091,0.034,10.075,0.242,-0.467,-35.228,0.95306,0.00076,-0.00455,-0.30258
1746916794.2074463,0.086,0.038,10.051,0.242,-0.467,-35.228,0.95306,0.00076,-0.00455,-0.30258
1746916794.2074463,0.086,0.038,10.051,0.242,-0.467,-35.228,0.95306,0.00076,-0.00455,-0.30258
1746916794.208452,0.081,0.038,10.06,0.242,-0.467,-35.228,0.95306,0.00076,-0.00455,-0.30258
1746916794.208452,0.081,0.038,10.06,0.242,-0.467,-35.228,0.95306,0.00076,-0.00455,-0.30258
1746916794.2094493,0.072,0.038,10.075,0.242,-0.467,-35.228,0.95306,0.00076,-0.00455,-0.30258
1746916794.2094493,0.072,0.038,10.075,0.242,-0.467,-35.228,0.95306,0.00076,-0.00455,-0.30258
1746916794.229564,0.077,0.043,10.06,0.242,-0.467,-35.228,0.95306,0.00076,-0.00455,-0.30258
1746916794.2305655,0.077,0.043,10.06,0.242,-0.467,-35.228,0.95306,0.00076,-0.00455,-0.30258
1746916794.2315636,0.077,0.038,10.051,0.242,-0.467,-35.228,0.95306,0.00076,-0.00455,-0.30258
1746916794.2325635,0.077,0.038,10.051,0.242,-0.467,-35.228,0.95306,0.00076,-0.00455,-0.30258
1746916794.2597349,0.081,0.043,10.07,0.242,-0.467,-35.228,0.95306,0.00076,-0.00455,-0.30258
1746916794.2617314,0.081,0.043,10.07,0.242,-0.467,-35.228,0.95306,0.00076,-0.00455,-0.30258
1746916794.2627356,0.081,0.043,10.065,0.242,-0.467,-35.228,0.95306,0.00076,-0.00452,-0.30258
1746916794.2627356,0.081,0.043,10.065,0.242,-0.467,-35.228,0.95306,0.00076,-0.00452,-0.30258
1746916794.3493407,0.086,0.043,10.06,0.242,-0.467,-35.228,0.95306,0.00076,-0.00452,-0.30258
1746916794.3773596,0.086,0.043,10.06,0.242,-0.467,-35.228,0.95306,0.00076,-0.00452,-0.30258
1746916794.3783538,0.077,0.048,10.06,0.242,-0.467,-35.228,0.95306,0.00076,-0.00452,-0.30258
1746916794.3783538,0.077,0.048,10.06,0.242,-0.467,-35.228,0.95306,0.00076,-0.00452,-0.30258
1746916794.379353,0.072,0.043,10.056,0.242,-0.467,-35.228,0.95306,0.00076,-0.00452,-0.30258
1746916794.380352,0.072,0.043,10.056,0.242,-0.467,-35.228,0.95306,0.00076,-0.00452,-0.30258
1746916794.3813515,0.072,0.038,10.056,0.242,-0.467,-35.228,0.95306,0.00076,-0.00452,-0.30258
1746916794.3823504,0.072,0.038,10.056,0.242,-0.467,-35.228,0.95306,0.00076,-0.00452,-0.30258
1746916794.4089844,0.072,0.043,10.07,0.242,-0.467,-35.228,0.95306,0.00076,-0.00452,-0.30258
1746916794.410912,0.072,0.043,10.07,0.242,-0.467,-35.228,0.95306,0.00076,-0.00452,-0.30258
1746916794.4119062,0.091,0.034,10.075,0.242,-0.467,-35.228,0.95306,0.00076,-0.00452,-0.30258
1746916794.4119062,0.091,0.034,10.075,0.242,-0.467,-35.228,0.95306,0.00076,-0.00452,-0.30258
1746916794.4407191,0.091,0.043,10.07,0.242,-0.467,-35.228,0.95306,0.00076,-0.00452,-0.30258
1746916794.441892,0.091,0.043,10.07,0.242,-0.467,-35.228,0.95306,0.00076,-0.00452,-0.30258
1746916794.4425356,0.081,0.043,10.06,0.242,-0.467,-35.228,0.95306,0.00076,-0.00452,-0.30258
1746916794.4438913,0.081,0.043,10.06,0.242,-0.467,-35.228,0.95306,0.00076,-0.00452,-0.30258
1746916794.5299745,0.067,0.038,10.065,0.242,-0.467,-35.228,0.95306,0.00076,-0.00452,-0.30258
1746916794.5319746,0.067,0.038,10.065,0.242,-0.467,-35.228,0.95306,0.00076,-0.00452,-0.30258
1746916794.5329828,0.067,0.038,10.07,0.242,-0.467,-35.228,0.95306,0.00076,-0.00452,-0.30258
1746916794.534971,0.067,0.038,10.07,0.242,-0.467,-35.228,0.95306,0.00076,-0.00452,-0.30258
1746916794.5369816,0.077,0.043,10.051,0.242,-0.467,-35.228,0.95306,0.00076,-0.00452,-0.30258
1746916794.5384967,0.077,0.043,10.051,0.242,-0.467,-35.228,0.95306,0.00076,-0.00452,-0.30258
1746916794.5395129,0.081,0.043,10.084,0.242,-0.467,-35.228,0.95306,0.00076,-0.00452,-0.30258
1746916794.5415156,0.081,0.043,10.084,0.242,-0.467,-35.228,0.95306,0.00076,-0.00452,-0.30258
1746916794.5595126,0.086,0.043,10.06,0.242,-0.467,-35.228,0.95306,0.00076,-0.00452,-0.30258
1746916794.5605118,0.086,0.043,10.06,0.242,-0.467,-35.228,0.95306,0.00076,-0.00452,-0.30258
1746916794.5615108,0.086,0.043,10.056,0.242,-0.467,-35.228,0.95306,0.00076,-0.00452,-0.30258
1746916794.5625117,0.086,0.043,10.056,0.242,-0.467,-35.228,0.95306,0.00076,-0.00452,-0.30258
1746916794.6195133,0.081,0.043,10.065,0.242,-0.467,-35.228,0.95306,0.00076,-0.00452,-0.30258
1746916794.6205156,0.081,0.043,10.065,0.242,-0.467,-35.228,0.95306,0.00076,-0.00452,-0.30258
1746916794.621517,0.077,0.043,10.065,0.242,-0.467,-35.228,0.95306,0.00076,-0.00452,-0.30258
1746916794.6225133,0.077,0.043,10.065,0.242,-0.467,-35.228,0.95306,0.00076,-0.00452,-0.30258
1746916794.6235151,0.081,0.048,10.056,0.242,-0.467,-35.228,0.95306,0.00076,-0.00452,-0.30258
1746916794.624528,0.081,0.048,10.056,0.242,-0.467,-35.228,0.95306,0.00076,-0.00452,-0.30258
1746916794.626534,0.081,0.038,10.07,0.242,-0.467,-35.228,0.95306,0.00076,-0.00452,-0.30258
1746916794.6275318,0.081,0.038,10.07,0.242,-0.467,-35.228,0.95306,0.00076,-0.00452,-0.30258
1746916794.679343,0.091,0.034,10.07,0.242,-0.467,-35.228,0.95306,0.00076,-0.00452,-0.30258
1746916794.6813424,0.091,0.034,10.07,0.242,-0.467,-35.228,0.95306,0.00076,-0.00452,-0.30258
1746916794.6819887,0.081,0.038,10.065,0.242,-0.467,-35.228,0.95306,0.00076,-0.00452,-0.30258
1746916794.6833422,0.081,0.038,10.065,0.242,-0.467,-35.228,0.95306,0.00076,-0.00452,-0.30258
1746916794.710378,0.077,0.048,10.051,0.242,-0.467,-35.228,0.95306,0.00076,-0.00452,-0.30258
1746916794.711374,0.077,0.048,10.051,0.242,-0.467,-35.228,0.95306,0.00076,-0.00452,-0.30258
1746916794.712374,0.072,0.048,10.065,0.242,-0.467,-35.228,0.95306,0.00076,-0.00452,-0.30258
1746916794.7133741,0.072,0.048,10.065,0.242,-0.467,-35.228,0.95306,0.00076,-0.00452,-0.30258
1746916794.7403195,0.072,0.034,10.065,0.242,-0.467,-35.228,0.95306,0.00076,-0.00452,-0.30258
1746916794.7413201,0.072,0.034,10.065,0.242,-0.467,-35.228,0.95306,0.00076,-0.00452,-0.30258
1746916794.7423193,0.086,0.038,10.065,0.242,-0.467,-35.228,0.95306,0.00076,-0.00452,-0.30258
1746916794.7433195,0.086,0.038,10.065,0.242,-0.467,-35.228,0.95306,0.00076,-0.00452,-0.30258
1746916794.8307571,0.086,0.038,10.065,0.242,-0.467,-35.228,0.95306,0.00076,-0.00452,-0.30258
1746916794.8321187,0.086,0.038,10.065,0.242,-0.467,-35.228,0.95306,0.00076,-0.00452,-0.30258
1746916794.8337545,0.086,0.048,10.065,0.242,-0.467,-35.228,0.95306,0.00076,-0.00452,-0.30258
1746916794.8347864,0.086,0.048,10.065,0.242,-0.467,-35.228,0.95306,0.00076,-0.00452,-0.30258
1746916794.8357635,0.077,0.038,10.06,0.242,-0.467,-35.228,0.95306,0.00076,-0.00452,-0.30258
1746916794.8367574,0.077,0.038,10.06,0.242,-0.467,-35.228,0.95306,0.00076,-0.00452,-0.30258
1746916794.837756,0.077,0.038,10.065,0.242,-0.467,-35.228,0.95306,0.00076,-0.00452,-0.30258
1746916794.8387563,0.077,0.038,10.065,0.242,-0.467,-35.228,0.95306,0.00076,-0.00452,-0.30258
1746916794.8604236,0.077,0.043,10.07,0.242,-0.467,-35.228,0.95306,0.00076,-0.00452,-0.30258
1746916794.8620648,0.077,0.043,10.07,0.242,-0.467,-35.228,0.95306,0.00076,-0.00452,-0.30258
1746916794.8630655,0.072,0.048,10.056,0.242,-0.467,-35.228,0.95306,0.00076,-0.00452,-0.30258
1746916794.8640635,0.072,0.048,10.056,0.242,-0.467,-35.228,0.95306,0.00076,-0.00452,-0.30258
1746916794.9205337,0.072,0.043,10.056,0.242,-0.467,-35.228,0.95306,0.00076,-0.00452,-0.30258
1746916794.9215384,0.072,0.043,10.056,0.242,-0.467,-35.228,0.95306,0.00076,-0.00452,-0.30258
1746916794.923531,0.081,0.034,10.075,0.242,-0.467,-35.228,0.95306,0.00076,-0.00452,-0.30258
1746916794.924562,0.081,0.034,10.075,0.242,-0.467,-35.228,0.95306,0.00076,-0.00452,-0.30258
1746916794.9807498,0.077,0.038,10.07,0.242,-0.467,-35.228,0.95306,0.00076,-0.00452,-0.30258
1746916794.9824924,0.077,0.038,10.07,0.242,-0.467,-35.228,0.95306,0.00076,-0.00452,-0.30258
1746916794.983495,0.081,0.043,10.06,0.242,-0.467,-35.228,0.95306,0.00076,-0.00452,-0.30258
1746916794.984494,0.081,0.043,10.06,0.242,-0.467,-35.228,0.95306,0.00076,-0.00452,-0.30258
1746916795.0103755,0.081,0.043,10.075,0.242,-0.467,-35.228,0.95306,0.00076,-0.00452,-0.30258
1746916795.0110133,0.081,0.043,10.075,0.242,-0.467,-35.228,0.95306,0.00076,-0.00452,-0.30258
1746916795.0130136,0.081,0.048,10.06,0.242,-0.467,-35.228,0.95306,0.00076,-0.00452,-0.30258
1746916795.0143886,0.081,0.048,10.06,0.242,-0.467,-35.228,0.95306,0.00076,-0.00452,-0.30258
1746916795.0405972,0.081,0.043,10.056,0.242,-0.467,-35.228,0.95306,0.00076,-0.00452,-0.30258
1746916795.041589,0.081,0.043,10.056,0.242,-0.467,-35.228,0.95306,0.00076,-0.00452,-0.30258
1746916795.0425842,0.081,0.038,10.065,0.242,-0.467,-35.228,0.95306,0.00076,-0.00452,-0.30258
1746916795.0435882,0.081,0.038,10.065,0.242,-0.467,-35.228,0.95306,0.00076,-0.00452,-0.30258
1746916795.0692754,0.086,0.043,10.065,0.242,-0.467,-35.228,0.95306,0.00076,-0.00452,-0.30258
1746916795.0712714,0.086,0.043,10.065,0.242,-0.467,-35.228,0.95306,0.00076,-0.00452,-0.30258
1746916795.0722747,0.077,0.038,10.051,0.242,-0.467,-35.228,0.95306,0.00076,-0.00452,-0.30258
1746916795.07328,0.077,0.038,10.051,0.242,-0.467,-35.228,0.95306,0.00076,-0.00452,-0.30258
1746916795.129773,0.077,0.038,10.06,0.242,-0.467,-35.228,0.95306,0.00076,-0.00452,-0.30258
1746916795.1317747,0.077,0.038,10.06,0.242,-0.467,-35.228,0.95306,0.00076,-0.00452,-0.30258
1746916795.1327865,0.077,0.034,10.075,0.242,-0.467,-35.228,0.95306,0.00076,-0.00452,-0.30258
1746916795.1337883,0.077,0.034,10.075,0.242,-0.467,-35.228,0.95306,0.00076,-0.00452,-0.30258
1746916795.1607742,0.081,0.038,10.065,0.242,-0.467,-35.228,0.95306,0.00076,-0.00452,-0.30258
1746916795.1614037,0.081,0.038,10.065,0.242,-0.467,-35.228,0.95306,0.00076,-0.00452,-0.30258
1746916795.162763,0.081,0.043,10.046,0.242,-0.467,-35.228,0.95306,0.00076,-0.00452,-0.30258
1746916795.1634023,0.081,0.043,10.046,0.242,-0.467,-35.228,0.95306,0.00076,-0.00452,-0.30258
1746916795.1898804,0.086,0.053,10.056,0.242,-0.467,-35.228,0.95306,0.00076,-0.00452,-0.30258
1746916795.1918826,0.086,0.053,10.056,0.242,-0.467,-35.228,0.95306,0.00076,-0.00452,-0.30258
1746916795.192885,0.077,0.038,10.084,0.242,-0.467,-35.228,0.95306,0.00076,-0.00452,-0.30258
1746916795.1938846,0.077,0.038,10.084,0.242,-0.467,-35.228,0.95306,0.00076,-0.00452,-0.30258
1746916795.2504854,0.086,0.029,10.065,0.242,-0.467,-35.228,0.95306,0.00076,-0.00452,-0.30258
1746916795.2524874,0.086,0.029,10.065,0.242,-0.467,-35.228,0.95306,0.00076,-0.00452,-0.30258
1746916795.2534828,0.086,0.043,10.046,0.242,-0.467,-35.228,0.95306,0.00076,-0.00452,-0.30258
1746916795.2544904,0.086,0.043,10.046,0.242,-0.467,-35.228,0.95306,0.00076,-0.00452,-0.30258
1746916795.279598,0.077,0.062,10.075,0.242,-0.467,-35.228,0.95306,0.00076,-0.00452,-0.30258
1746916795.281593,0.077,0.062,10.075,0.242,-0.467,-35.228,0.95306,0.00076,-0.00452,-0.30258
1746916795.282596,0.081,0.043,10.065,0.242,-0.467,-35.228,0.95306,0.00076,-0.00452,-0.30258
1746916795.2835917,0.081,0.043,10.065,0.242,-0.467,-35.228,0.95306,0.00076,-0.00452,-0.30258
1746916795.3104582,0.081,0.034,10.06,0.242,-0.467,-35.228,0.95306,0.00076,-0.00452,-0.30258
1746916795.3118196,0.081,0.034,10.06,0.242,-0.467,-35.228,0.95306,0.00076,-0.00452,-0.30258
1746916795.3124585,0.081,0.038,10.075,0.242,-0.467,-35.228,0.95306,0.00076,-0.00452,-0.30258
1746916795.314468,0.081,0.038,10.075,0.242,-0.467,-35.228,0.95306,0.00076,-0.00452,-0.30258
1746916795.4009976,0.081,0.043,10.065,0.242,-0.467,-35.228,0.95306,0.00076,-0.00452,-0.30258
1746916795.4019933,0.081,0.043,10.065,0.242,-0.467,-35.228,0.95306,0.00076,-0.00452,-0.30258
1746916795.4029942,0.086,0.038,10.056,0.242,-0.467,-35.228,0.95306,0.00076,-0.00452,-0.30258
1746916795.4049957,0.086,0.038,10.056,0.242,-0.467,-35.228,0.95306,0.00076,-0.00452,-0.30258
1746916795.4063547,0.081,0.043,10.07,0.242,-0.467,-35.228,0.95306,0.00076,-0.00452,-0.30258
1746916795.4069955,0.081,0.043,10.07,0.242,-0.467,-35.228,0.95306,0.00076,-0.00452,-0.30258
1746916795.4090102,0.081,0.038,10.06,0.242,-0.467,-35.228,0.95306,0.00076,-0.00452,-0.30258
1746916795.4090102,0.081,0.038,10.06,0.242,-0.467,-35.228,0.95306,0.00076,-0.00452,-0.30258
1746916795.4302893,0.077,0.038,10.051,0.242,-0.467,-35.228,0.95306,0.00076,-0.00452,-0.30258
1746916795.4312015,0.077,0.038,10.051,0.242,-0.467,-35.228,0.95306,0.00076,-0.00452,-0.30258
1746916795.4321532,0.081,0.048,10.056,0.242,-0.467,-35.228,0.95306,0.00076,-0.00452,-0.30258
1746916795.4331455,0.081,0.048,10.056,0.242,-0.467,-35.228,0.95306,0.00076,-0.00452,-0.30258
1746916795.4897068,0.086,0.048,10.08,0.242,-0.467,-35.228,0.95306,0.00076,-0.00452,-0.30258
1746916795.4917092,0.086,0.048,10.08,0.242,-0.467,-35.228,0.95306,0.00076,-0.00452,-0.30258
1746916795.4930696,0.091,0.038,10.065,0.242,-0.467,-35.228,0.95306,0.00076,-0.00452,-0.30258
1746916795.4937077,0.091,0.038,10.065,0.242,-0.467,-35.228,0.95306,0.00076,-0.00452,-0.30258
1746916795.5194433,0.081,0.034,10.06,0.242,-0.467,-35.228,0.95306,0.00076,-0.00452,-0.30258
1746916795.5212917,0.081,0.034,10.06,0.242,-0.467,-35.228,0.95306,0.00076,-0.00452,-0.30258
1746916795.5222929,0.081,0.034,10.065,0.242,-0.467,-35.228,0.95306,0.00076,-0.00452,-0.30258
1746916795.5233023,0.081,0.034,10.065,0.242,-0.467,-35.228,0.95306,0.00076,-0.00452,-0.30258
1746916795.5498364,0.072,0.034,10.06,0.242,-0.467,-35.228,0.95306,0.00076,-0.00452,-0.30258
1746916795.550833,0.072,0.034,10.06,0.242,-0.467,-35.228,0.95306,0.00076,-0.00452,-0.30258
1746916795.5520375,0.077,0.043,10.065,0.242,-0.467,-35.228,0.95306,0.00076,-0.00452,-0.30258
1746916795.5528436,0.077,0.043,10.065,0.242,-0.467,-35.228,0.95306,0.00076,-0.00452,-0.30258
1746916795.6100278,0.086,0.048,10.065,0.242,-0.467,-35.228,0.95306,0.00076,-0.00452,-0.30258
1746916795.612027,0.086,0.048,10.065,0.242,-0.467,-35.228,0.95306,0.00076,-0.00452,-0.30258
1746916795.613025,0.091,0.048,10.06,0.242,-0.467,-35.228,0.95306,0.00076,-0.00452,-0.30258
1746916795.6140285,0.091,0.048,10.06,0.242,-0.467,-35.228,0.95306,0.00076,-0.00452,-0.30258
1746916795.6407797,0.086,0.043,10.06,0.242,-0.467,-35.228,0.95306,0.00076,-0.00452,-0.30258
1746916795.6426039,0.086,0.043,10.06,0.242,-0.467,-35.228,0.95306,0.00076,-0.00452,-0.30258
1746916795.643325,0.081,0.043,10.07,0.242,-0.467,-35.228,0.95306,0.00076,-0.00452,-0.30258
1746916795.644319,0.081,0.043,10.07,0.242,-0.467,-35.228,0.95306,0.00076,-0.00455,-0.30258
1746916795.700395,0.081,0.038,10.065,0.242,-0.467,-35.228,0.95306,0.00076,-0.00455,-0.30258
1746916795.7013848,0.081,0.038,10.065,0.242,-0.467,-35.228,0.95306,0.00076,-0.00455,-0.30258
1746916795.7023845,0.077,0.038,10.06,0.242,-0.467,-35.228,0.95306,0.00076,-0.00455,-0.30258
1746916795.7043898,0.077,0.038,10.06,0.242,-0.467,-35.228,0.95306,0.00076,-0.00455,-0.30258
1746916795.7302759,0.081,0.043,10.051,0.242,-0.467,-35.228,0.95306,0.00076,-0.00455,-0.30258
1746916795.7309043,0.081,0.043,10.051,0.242,-0.467,-35.228,0.95306,0.00076,-0.00455,-0.30258
1746916795.7319043,0.077,0.038,10.07,0.242,-0.467,-35.228,0.95306,0.00076,-0.00455,-0.30258
1746916795.7329,0.077,0.038,10.07,0.242,-0.467,-35.228,0.95306,0.00076,-0.00455,-0.30258
1746916795.75951,0.081,0.043,10.065,0.242,-0.467,-35.228,0.95306,0.00076,-0.00455,-0.30258
1746916795.7615106,0.081,0.043,10.065,0.242,-0.467,-35.228,0.95306,0.00076,-0.00455,-0.30258
1746916795.7628744,0.077,0.048,10.06,0.242,-0.467,-35.228,0.95306,0.00076,-0.00455,-0.30258
1746916795.7635095,0.077,0.048,10.06,0.242,-0.467,-35.228,0.95306,0.00076,-0.00455,-0.30258
1746916795.7900097,0.072,0.038,10.051,0.242,-0.467,-35.228,0.95306,0.00076,-0.00455,-0.30258
1746916795.7919185,0.072,0.038,10.051,0.242,-0.467,-35.228,0.95306,0.00076,-0.00455,-0.30258
1746916795.7926474,0.081,0.043,10.065,0.242,-0.467,-35.228,0.95306,0.00076,-0.00455,-0.30258
1746916795.7936459,0.081,0.043,10.065,0.242,-0.467,-35.228,0.95306,0.00076,-0.00455,-0.30258
1746916795.880232,0.086,0.038,10.065,0.242,-0.467,-35.228,0.95306,0.00076,-0.00455,-0.30258
1746916795.8822365,0.086,0.038,10.065,0.242,-0.467,-35.228,0.95306,0.00076,-0.00455,-0.30258
1746916795.8832262,0.091,0.038,10.06,0.242,-0.467,-35.228,0.95306,0.00076,-0.00455,-0.30258
1746916795.8842254,0.091,0.038,10.06,0.242,-0.467,-35.228,0.95306,0.00076,-0.00455,-0.30258
1746916795.885227,0.081,0.043,10.065,0.242,-0.467,-35.228,0.95306,0.00076,-0.00455,-0.30258
1746916795.8872292,0.081,0.043,10.065,0.242,-0.467,-35.228,0.95306,0.00076,-0.00455,-0.30258
1746916795.8882377,0.067,0.043,10.06,0.242,-0.467,-35.228,0.95306,0.00076,-0.00455,-0.30258
1746916795.8882377,0.067,0.043,10.06,0.242,-0.467,-35.228,0.95306,0.00076,-0.00455,-0.30258
1746916795.9414446,0.067,0.034,10.065,0.242,-0.467,-35.228,0.95306,0.00076,-0.00455,-0.30258
1746916795.942969,0.067,0.034,10.065,0.242,-0.467,-35.228,0.95306,0.00076,-0.00455,-0.30258
1746916795.9439964,0.081,0.043,10.06,0.242,-0.467,-35.228,0.95306,0.00076,-0.00455,-0.30258
1746916795.9449906,0.081,0.043,10.06,0.242,-0.467,-35.228,0.95306,0.00076,-0.00455,-0.30258
1746916795.9706678,0.091,0.043,10.07,0.242,-0.467,-35.228,0.95306,0.00076,-0.00455,-0.30258
1746916795.971666,0.091,0.043,10.07,0.242,-0.467,-35.228,0.95306,0.00076,-0.00455,-0.30258
1746916795.9736655,0.091,0.048,10.06,0.242,-0.467,-35.228,0.95306,0.00076,-0.00455,-0.30258
1746916795.9746675,0.091,0.048,10.06,0.242,-0.467,-35.228,0.95306,0.00076,-0.00455,-0.30258
1746916796.0304306,0.091,0.043,10.06,0.242,-0.467,-35.228,0.95306,0.00076,-0.00455,-0.30258
1746916796.0324256,0.091,0.043,10.06,0.242,-0.467,-35.228,0.95306,0.00076,-0.00455,-0.30258
1746916796.033427,0.072,0.038,10.065,0.242,-0.467,-35.228,0.95306,0.00076,-0.00455,-0.30258
1746916796.0344243,0.072,0.038,10.065,0.242,-0.467,-35.228,0.95306,0.00076,-0.00455,-0.30258
1746916796.0364268,0.072,0.038,10.07,0.242,-0.467,-35.228,0.95306,0.00076,-0.00455,-0.30258
1746916796.0374255,0.072,0.038,10.07,0.242,-0.467,-35.228,0.95306,0.00076,-0.00455,-0.30258
1746916796.0384274,0.081,0.038,10.051,0.242,-0.467,-35.228,0.95306,0.00076,-0.00455,-0.30258
1746916796.040425,0.081,0.038,10.051,0.242,-0.467,-35.228,0.95306,0.00076,-0.00455,-0.30258
1746916796.0893817,0.086,0.048,10.056,0.242,-0.467,-35.228,0.95306,0.00076,-0.00455,-0.30258
1746916796.0913742,0.086,0.048,10.056,0.242,-0.467,-35.228,0.95306,0.00076,-0.00455,-0.30258
1746916796.0923858,0.086,0.043,10.07,0.242,-0.467,-35.228,0.95306,0.00076,-0.00455,-0.30258
1746916796.0933728,0.086,0.043,10.07,0.242,-0.467,-35.228,0.95306,0.00076,-0.00455,-0.30258
1746916796.1208696,0.081,0.038,10.065,0.242,-0.467,-35.228,0.95306,0.00076,-0.00455,-0.30258
1746916796.1218724,0.081,0.038,10.065,0.242,-0.467,-35.228,0.95306,0.00076,-0.00455,-0.30258
1746916796.1228735,0.072,0.043,10.06,0.242,-0.467,-35.228,0.95306,0.00076,-0.00455,-0.30258
1746916796.1238742,0.072,0.043,10.06,0.242,-0.467,-35.228,0.95306,0.00076,-0.00455,-0.30258
1746916796.1492348,0.086,0.043,10.06,0.242,-0.467,-35.228,0.95306,0.00076,-0.00455,-0.30258
1746916796.151232,0.086,0.043,10.06,0.242,-0.467,-35.228,0.95306,0.00076,-0.00455,-0.30258
1746916796.1522348,0.081,0.043,10.065,0.242,-0.467,-35.228,0.95306,0.00076,-0.00455,-0.30258
1746916796.1542375,0.081,0.043,10.065,0.242,-0.467,-35.228,0.95306,0.00076,-0.00455,-0.30258
1746916796.2105756,0.077,0.038,10.06,0.242,-0.467,-35.228,0.95306,0.00076,-0.00455,-0.30258
1746916796.2115765,0.077,0.038,10.06,0.242,-0.467,-35.228,0.95306,0.00076,-0.00455,-0.30258
1746916796.212576,0.081,0.034,10.056,0.242,-0.467,-35.228,0.95306,0.00076,-0.00455,-0.30258
1746916796.2135754,0.081,0.034,10.056,0.242,-0.467,-35.228,0.95306,0.00076,-0.00455,-0.30258
1746916796.2401714,0.081,0.034,10.056,0.242,-0.467,-35.228,0.95306,0.00076,-0.00455,-0.30258
1746916796.2415278,0.081,0.034,10.056,0.242,-0.467,-35.228,0.95306,0.00076,-0.00455,-0.30258
1746916796.242173,0.077,0.048,10.056,0.242,-0.467,-35.228,0.95306,0.00076,-0.00455,-0.30258
1746916796.243169,0.077,0.048,10.056,0.242,-0.467,-35.228,0.95306,0.00076,-0.00455,-0.30258
1746916796.2698252,0.077,0.048,10.075,0.242,-0.467,-35.228,0.95306,0.00076,-0.00455,-0.30258
1746916796.2718225,0.077,0.048,10.075,0.242,-0.467,-35.228,0.95306,0.00076,-0.00455,-0.30258
1746916796.2728376,0.077,0.048,10.06,0.242,-0.467,-35.228,0.95306,0.00076,-0.00455,-0.30258
1746916796.2738225,0.077,0.048,10.06,0.242,-0.467,-35.228,0.95306,0.00076,-0.00455,-0.30258
1746916796.330663,0.086,0.043,10.06,0.242,-0.467,-35.228,0.95306,0.00076,-0.00455,-0.30258
1746916796.3320205,0.086,0.043,10.06,0.242,-0.467,-35.228,0.95306,0.00076,-0.00455,-0.30258
1746916796.3326623,0.081,0.043,10.06,0.242,-0.467,-35.228,0.95306,0.00076,-0.00455,-0.30258
1746916796.3336654,0.081,0.043,10.06,0.242,-0.467,-35.228,0.95306,0.00076,-0.00455,-0.30258
1746916796.360561,0.081,0.034,10.07,0.242,-0.467,-35.228,0.95306,0.00076,-0.00455,-0.30258
1746916796.3625615,0.081,0.034,10.07,0.242,-0.467,-35.228,0.95306,0.00076,-0.00455,-0.30258
1746916796.3635592,0.081,0.034,10.06,0.242,-0.467,-35.228,0.95306,0.00076,-0.00455,-0.30258
1746916796.3645651,0.081,0.034,10.06,0.242,-0.467,-35.228,0.95306,0.00076,-0.00455,-0.30258
1746916796.4494164,0.077,0.038,10.056,0.242,-0.467,-35.228,0.95306,0.00076,-0.00455,-0.30258
1746916796.4514112,0.077,0.038,10.056,0.242,-0.467,-35.228,0.95306,0.00076,-0.00455,-0.30258
1746916796.453413,0.067,0.048,10.06,0.242,-0.467,-35.228,0.95306,0.00076,-0.00455,-0.30258
1746916796.454415,0.067,0.048,10.06,0.242,-0.467,-35.228,0.95306,0.00076,-0.00455,-0.30258
1746916796.4554143,0.081,0.043,10.06,0.242,-0.467,-35.228,0.95306,0.00076,-0.00455,-0.30258
1746916796.4567695,0.081,0.043,10.06,0.242,-0.467,-35.228,0.95306,0.00076,-0.00455,-0.30258
1746916796.4574163,0.081,0.038,10.056,0.242,-0.467,-35.228,0.95306,0.00076,-0.00455,-0.30258
1746916796.4587746,0.081,0.038,10.056,0.242,-0.467,-35.228,0.95306,0.00076,-0.00455,-0.30258
1746916796.479782,0.086,0.043,10.07,0.242,-0.467,-35.228,0.95306,0.00076,-0.00455,-0.30258
1746916796.4818807,0.086,0.043,10.07,0.242,-0.467,-35.228,0.95306,0.00076,-0.00455,-0.30258
1746916796.4828193,0.081,0.043,10.065,0.242,-0.467,-35.228,0.95306,0.00076,-0.00455,-0.30258
1746916796.4837794,0.081,0.043,10.065,0.242,-0.467,-35.228,0.95306,0.00076,-0.00455,-0.30258
1746916796.5399992,0.072,0.038,10.056,0.242,-0.467,-35.228,0.95306,0.00076,-0.00455,-0.30258
1746916796.5413573,0.072,0.038,10.056,0.242,-0.467,-35.228,0.95306,0.00076,-0.00455,-0.30258
1746916796.5419998,0.072,0.038,10.06,0.242,-0.467,-35.228,0.95306,0.00076,-0.00455,-0.30258
1746916796.543366,0.072,0.038,10.06,0.242,-0.467,-35.228,0.95306,0.00076,-0.00455,-0.30258
1746916796.6008773,0.077,0.038,10.065,0.242,-0.467,-35.228,0.95306,0.00076,-0.00455,-0.30258
1746916796.6028764,0.077,0.038,10.065,0.242,-0.467,-35.228,0.95306,0.00076,-0.00455,-0.30258
1746916796.6038754,0.086,0.043,10.06,0.242,-0.467,-35.228,0.95306,0.00076,-0.00455,-0.30258
1746916796.6048782,0.086,0.043,10.06,0.242,-0.467,-35.228,0.95306,0.00076,-0.00455,-0.30258
1746916796.606878,0.081,0.043,10.06,0.242,-0.467,-35.228,0.95306,0.00076,-0.00455,-0.30258
1746916796.6078758,0.081,0.043,10.06,0.242,-0.467,-35.228,0.95306,0.00076,-0.00455,-0.30258
1746916796.6088789,0.077,0.048,10.065,0.242,-0.467,-35.228,0.95306,0.00076,-0.00455,-0.30258
1746916796.6098754,0.077,0.048,10.065,0.242,-0.467,-35.228,0.95306,0.00076,-0.00455,-0.30258
1746916796.6903782,0.072,0.048,10.065,0.242,-0.467,-35.228,0.95306,0.00076,-0.00455,-0.30258
1746916796.6913726,0.072,0.048,10.065,0.242,-0.467,-35.228,0.95306,0.00076,-0.00455,-0.30258
1746916796.6933773,0.077,0.034,10.06,0.242,-0.467,-35.228,0.95306,0.00076,-0.00455,-0.30258
1746916796.6943703,0.077,0.034,10.06,0.242,-0.467,-35.228,0.95306,0.00076,-0.00455,-0.30258
1746916796.6953785,0.081,0.029,10.065,0.242,-0.467,-35.228,0.95306,0.00079,-0.00452,-0.30258
1746916796.696379,0.081,0.029,10.065,0.242,-0.467,-35.228,0.95306,0.00079,-0.00452,-0.30258
1746916796.69738,0.086,0.038,10.065,0.242,-0.467,-35.228,0.95306,0.00079,-0.00452,-0.30258
1746916796.698379,0.086,0.038,10.065,0.242,-0.467,-35.228,0.95306,0.00079,-0.00452,-0.30258
1746916796.7194955,0.081,0.043,10.056,0.242,-0.467,-35.228,0.95306,0.00079,-0.00452,-0.30258
1746916796.7214973,0.081,0.043,10.056,0.242,-0.467,-35.228,0.95306,0.00079,-0.00452,-0.30258
1746916796.722499,0.077,0.053,10.051,0.242,-0.467,-35.228,0.95306,0.00079,-0.00452,-0.30258
1746916796.7234962,0.077,0.053,10.051,0.242,-0.467,-35.228,0.95306,0.00079,-0.00452,-0.30258
1746916796.7803454,0.077,0.053,10.06,0.242,-0.467,-35.228,0.95306,0.00079,-0.00452,-0.30258
1746916796.7812166,0.077,0.053,10.06,0.242,-0.467,-35.228,0.95306,0.00079,-0.00452,-0.30258
1746916796.7821991,0.077,0.038,10.056,0.242,-0.467,-35.228,0.95306,0.00079,-0.00452,-0.30258
1746916796.7841992,0.077,0.038,10.056,0.242,-0.467,-35.228,0.95306,0.00079,-0.00452,-0.30258
1746916796.8102634,0.077,0.038,10.06,0.242,-0.467,-35.228,0.95306,0.00079,-0.00452,-0.30258
1746916796.8112748,0.077,0.038,10.06,0.242,-0.467,-35.228,0.95306,0.00079,-0.00452,-0.30258
1746916796.8132606,0.077,0.038,10.065,0.242,-0.467,-35.228,0.95306,0.00079,-0.00452,-0.30258
1746916796.814266,0.077,0.038,10.065,0.242,-0.467,-35.228,0.95306,0.00079,-0.00452,-0.30258
1746916796.8704405,0.081,0.034,10.07,0.242,-0.467,-35.228,0.95306,0.00079,-0.00452,-0.30258
1746916796.8724394,0.081,0.034,10.07,0.242,-0.467,-35.228,0.95306,0.00079,-0.00452,-0.30258
1746916796.8734412,0.081,0.029,10.065,0.242,-0.467,-35.228,0.95306,0.00079,-0.00452,-0.30258
1746916796.8744397,0.081,0.029,10.065,0.242,-0.467,-35.228,0.95306,0.00079,-0.00452,-0.30258
1746916796.9001372,0.086,0.038,10.06,0.242,-0.467,-35.228,0.95306,0.00079,-0.00452,-0.30258
1746916796.9012556,0.086,0.038,10.06,0.242,-0.467,-35.228,0.95306,0.00079,-0.00452,-0.30258
1746916796.902142,0.081,0.043,10.065,0.242,-0.467,-35.228,0.95306,0.00079,-0.00452,-0.30258
1746916796.9031348,0.081,0.043,10.065,0.242,-0.467,-35.228,0.95306,0.00079,-0.00452,-0.30258
1746916796.9598944,0.081,0.048,10.06,0.242,-0.467,-35.228,0.95306,0.00079,-0.00452,-0.30258
1746916796.9605384,0.081,0.048,10.06,0.242,-0.467,-35.228,0.95306,0.00079,-0.00452,-0.30258
1746916796.9617434,0.072,0.048,10.056,0.242,-0.467,-35.228,0.95306,0.00079,-0.00452,-0.30258
1746916796.9635375,0.072,0.048,10.056,0.242,-0.467,-35.228,0.95306,0.00079,-0.00452,-0.30258
1746916796.9896653,0.081,0.038,10.056,0.242,-0.467,-35.228,0.95306,0.00079,-0.00452,-0.30258
1746916796.9906611,0.081,0.038,10.056,0.242,-0.467,-35.228,0.95306,0.00079,-0.00452,-0.30258
1746916796.9916635,0.081,0.038,10.07,0.242,-0.467,-35.228,0.95306,0.00079,-0.00452,-0.30258
1746916796.9940236,0.081,0.038,10.07,0.242,-0.467,-35.228,0.95306,0.00079,-0.00452,-0.30258
1746916797.0202253,0.091,0.038,10.075,0.242,-0.467,-35.228,0.95306,0.00079,-0.00452,-0.30258
1746916797.022212,0.091,0.038,10.075,0.242,-0.467,-35.228,0.95306,0.00079,-0.00452,-0.30258
1746916797.0232124,0.081,0.038,10.06,0.242,-0.467,-35.228,0.95306,0.00079,-0.00452,-0.30258
1746916797.0242116,0.081,0.038,10.06,0.242,-0.467,-35.228,0.95306,0.00079,-0.00452,-0.30258
1746916797.0506845,0.077,0.038,10.056,0.242,-0.467,-35.228,0.95306,0.00079,-0.00452,-0.30258
1746916797.0516832,0.077,0.038,10.056,0.242,-0.467,-35.228,0.95306,0.00079,-0.00452,-0.30258
1746916797.0526805,0.077,0.043,10.065,0.242,-0.467,-35.228,0.95306,0.00079,-0.00452,-0.30258
1746916797.0536869,0.077,0.043,10.065,0.242,-0.467,-35.228,0.95306,0.00079,-0.00452,-0.30258
1746916797.0805833,0.081,0.043,10.07,0.242,-0.467,-35.228,0.95306,0.00079,-0.00452,-0.30258
1746916797.081577,0.081,0.043,10.07,0.242,-0.467,-35.228,0.95306,0.00079,-0.00452,-0.30258
1746916797.0825782,0.081,0.043,10.065,0.242,-0.467,-35.228,0.95306,0.00079,-0.00452,-0.30258
1746916797.08358,0.081,0.043,10.065,0.242,-0.467,-35.228,0.95306,0.00079,-0.00452,-0.30258
1746916797.1394691,0.081,0.048,10.056,0.242,-0.467,-35.228,0.95306,0.00079,-0.00452,-0.30258
1746916797.1414633,0.081,0.034,10.06,0.242,-0.467,-35.228,0.95306,0.00079,-0.00452,-0.30258
1746916797.142464,0.081,0.034,10.06,0.242,-0.467,-35.228,0.95306,0.00079,-0.00452,-0.30258
1746916797.1434617,0.077,0.038,10.07,0.242,-0.467,-35.228,0.95306,0.00079,-0.00452,-0.30258
1746916797.1710062,0.077,0.038,10.07,0.242,-0.467,-35.228,0.95306,0.00079,-0.00452,-0.30258
1746916797.1720061,0.081,0.038,10.06,0.242,-0.467,-35.228,0.95306,0.00079,-0.00452,-0.30258
1746916797.1740136,0.081,0.038,10.06,0.242,-0.467,-35.228,0.95306,0.00079,-0.00452,-0.30258
1746916797.1750097,0.072,0.043,10.065,0.242,-0.467,-35.228,0.95306,0.00079,-0.00452,-0.30258
1746916797.1998258,0.072,0.043,10.065,0.242,-0.467,-35.228,0.95306,0.00079,-0.00452,-0.30258
1746916797.2004619,0.081,0.043,10.056,0.242,-0.467,-35.228,0.95306,0.00079,-0.00452,-0.30258
1746916797.2024686,0.081,0.043,10.056,0.242,-0.467,-35.228,0.95306,0.00079,-0.00452,-0.30258
1746916797.2034798,0.081,0.034,10.06,0.242,-0.467,-35.228,0.95306,0.00079,-0.00452,-0.30258
1746916797.2595534,0.081,0.034,10.06,0.242,-0.467,-35.228,0.95306,0.00079,-0.00452,-0.30258
1746916797.2611969,0.081,0.038,10.065,0.242,-0.467,-35.228,0.95306,0.00079,-0.00452,-0.30258
1746916797.262199,0.081,0.038,10.065,0.242,-0.467,-35.228,0.95306,0.00079,-0.00452,-0.30258
1746916797.2632065,0.081,0.048,10.065,0.242,-0.467,-35.228,0.95306,0.00079,-0.00452,-0.30258
1746916797.290049,0.081,0.048,10.065,0.242,-0.467,-35.228,0.95306,0.00079,-0.00452,-0.30258
1746916797.29105,0.081,0.048,10.056,0.242,-0.467,-35.228,0.95306,0.00079,-0.00452,-0.30258
1746916797.2920485,0.081,0.048,10.056,0.242,-0.467,-35.228,0.95306,0.00079,-0.00452,-0.30258
1746916797.2930481,0.077,0.043,10.065,0.242,-0.467,-35.228,0.95306,0.00079,-0.00452,-0.30258
1746916797.3205025,0.077,0.043,10.065,0.242,-0.467,-35.228,0.95306,0.00079,-0.00452,-0.30258
1746916797.3215077,0.081,0.029,10.056,0.242,-0.467,-35.228,0.95306,0.00079,-0.00452,-0.30258
1746916797.3234982,0.081,0.029,10.056,0.242,-0.467,-35.228,0.95306,0.00079,-0.00452,-0.30258
1746916797.3244977,0.077,0.034,10.056,0.242,-0.467,-35.228,0.95306,0.00079,-0.00452,-0.30258
1746916797.3805468,0.077,0.034,10.056,0.242,-0.467,-35.228,0.95306,0.00079,-0.00452,-0.30258
1746916797.3815453,0.086,0.038,10.07,0.242,-0.467,-35.228,0.95306,0.00079,-0.00452,-0.30258
1746916797.3825426,0.086,0.038,10.07,0.242,-0.467,-35.228,0.95306,0.00079,-0.00452,-0.30258
1746916797.3845396,0.086,0.048,10.065,0.242,-0.467,-35.228,0.95306,0.00079,-0.00452,-0.30258
1746916797.440107,0.086,0.048,10.065,0.242,-0.467,-35.228,0.95306,0.00079,-0.00452,-0.30258
1746916797.4419508,0.091,0.043,10.06,0.242,-0.467,-35.228,0.95306,0.00079,-0.00452,-0.30258
1746916797.4427528,0.091,0.043,10.06,0.242,-0.467,-35.228,0.95306,0.00079,-0.00452,-0.30258
1746916797.4437478,0.077,0.043,10.06,0.242,-0.467,-35.228,0.95306,0.00079,-0.00452,-0.30258
1746916797.444747,0.077,0.043,10.06,0.242,-0.467,-35.228,0.95306,0.00079,-0.00452,-0.30258
1746916797.445754,0.072,0.048,10.065,0.242,-0.467,-35.228,0.95306,0.00079,-0.00452,-0.30258
1746916797.44675,0.072,0.048,10.065,0.242,-0.467,-35.228,0.95306,0.00079,-0.00452,-0.30258
1746916797.4487457,0.081,0.053,10.06,0.242,-0.467,-35.228,0.95306,0.00079,-0.00452,-0.30258
1746916797.5001795,0.081,0.053,10.06,0.242,-0.467,-35.228,0.95306,0.00079,-0.00452,-0.30258
1746916797.5325296,0.086,0.038,10.06,0.242,-0.467,-35.228,0.95306,0.00079,-0.00452,-0.30258
1746916797.534311,0.086,0.038,10.06,0.242,-0.467,-35.228,0.95306,0.00079,-0.00452,-0.30258
1746916797.5351858,0.086,0.034,10.07,0.242,-0.467,-35.228,0.95306,0.00079,-0.00452,-0.30258
1746916797.5371838,0.086,0.034,10.07,0.242,-0.467,-35.228,0.95306,0.00079,-0.00452,-0.30258
1746916797.5381882,0.081,0.034,10.07,0.242,-0.467,-35.228,0.95306,0.00079,-0.00452,-0.30258
1746916797.5391839,0.081,0.034,10.07,0.242,-0.467,-35.228,0.95306,0.00079,-0.00452,-0.30258
1746916797.5401866,0.077,0.043,10.06,0.242,-0.467,-35.228,0.95306,0.00079,-0.00452,-0.30258
1746916797.5599058,0.077,0.043,10.06,0.242,-0.467,-35.228,0.95306,0.00079,-0.00452,-0.30258
1746916797.5609078,0.072,0.038,10.046,0.242,-0.467,-35.228,0.95306,0.00079,-0.00452,-0.30258
1746916797.562907,0.072,0.038,10.046,0.242,-0.467,-35.228,0.95306,0.00079,-0.00452,-0.30258
1746916797.5639114,0.077,0.048,10.06,0.242,-0.467,-35.228,0.95306,0.00079,-0.00452,-0.30258
1746916797.6195507,0.077,0.048,10.06,0.242,-0.467,-35.228,0.95306,0.00079,-0.00452,-0.30258
1746916797.6511145,0.081,0.043,10.084,0.242,-0.467,-35.228,0.95306,0.00079,-0.00452,-0.30258
1746916797.65213,0.081,0.043,10.084,0.242,-0.467,-35.228,0.95306,0.00079,-0.00452,-0.30258
1746916797.6531086,0.091,0.048,10.06,0.242,-0.467,-35.228,0.95306,0.00079,-0.00452,-0.30258
1746916797.6551192,0.091,0.048,10.06,0.242,-0.467,-35.228,0.95306,0.00079,-0.00452,-0.30258
1746916797.6561115,0.086,0.048,10.06,0.242,-0.467,-35.228,0.95306,0.00079,-0.00452,-0.30258
1746916797.6571143,0.086,0.048,10.06,0.242,-0.467,-35.228,0.95306,0.00079,-0.00452,-0.30258
1746916797.6581137,0.077,0.038,10.065,0.242,-0.467,-35.228,0.95306,0.00079,-0.00452,-0.30258
1746916797.7101796,0.077,0.038,10.065,0.242,-0.467,-35.228,0.95306,0.00079,-0.00452,-0.30258
1746916797.711179,0.072,0.034,10.065,0.242,-0.467,-35.228,0.95306,0.00079,-0.00452,-0.30258
1746916797.7131813,0.072,0.034,10.065,0.242,-0.467,-35.228,0.95306,0.00079,-0.00452,-0.30258
1746916797.7141814,0.077,0.034,10.056,0.242,-0.467,-35.228,0.95306,0.00079,-0.00452,-0.30258
1746916797.7397895,0.077,0.034,10.056,0.242,-0.467,-35.228,0.95306,0.00079,-0.00452,-0.30258
1746916797.7408009,0.086,0.048,10.056,0.242,-0.467,-35.228,0.95306,0.00079,-0.00452,-0.30258
1746916797.7427945,0.086,0.048,10.056,0.242,-0.467,-35.228,0.95306,0.00079,-0.00452,-0.30258
1746916797.7437925,0.091,0.048,10.06,0.242,-0.467,-35.228,0.95306,0.00079,-0.00452,-0.30258
1746916797.7698076,0.091,0.048,10.06,0.242,-0.467,-35.228,0.95306,0.00079,-0.00452,-0.30258
1746916797.7718017,0.086,0.043,10.06,0.242,-0.467,-35.228,0.95306,0.00079,-0.00452,-0.30258
1746916797.772803,0.086,0.043,10.06,0.242,-0.467,-35.228,0.95306,0.00079,-0.00452,-0.30258
1746916797.772803,0.081,0.043,10.056,0.242,-0.467,-35.228,0.95306,0.00079,-0.00452,-0.30258
1746916797.8002472,0.081,0.043,10.056,0.242,-0.467,-35.228,0.95306,0.00079,-0.00452,-0.30258
1746916797.8018885,0.081,0.043,10.06,0.242,-0.467,-35.228,0.95306,0.00079,-0.00452,-0.30258
1746916797.8028834,0.081,0.043,10.06,0.242,-0.467,-35.228,0.95306,0.00079,-0.00452,-0.30258
1746916797.80388,0.077,0.038,10.06,0.242,-0.467,-35.228,0.95306,0.00079,-0.00452,-0.30258
1746916797.8910265,0.077,0.038,10.06,0.242,-0.467,-35.228,0.95306,0.00079,-0.00452,-0.30258
1746916797.8920197,0.077,0.038,10.056,0.242,-0.467,-35.228,0.95306,0.00079,-0.00452,-0.30258
1746916797.894141,0.077,0.038,10.056,0.242,-0.467,-35.228,0.95306,0.00079,-0.00452,-0.30258
1746916797.8950264,0.081,0.034,10.06,0.242,-0.467,-35.228,0.95306,0.00079,-0.00452,-0.30258
1746916797.8970227,0.081,0.034,10.06,0.242,-0.467,-35.228,0.95306,0.00079,-0.00452,-0.30258
1746916797.8980212,0.091,0.043,10.075,0.242,-0.467,-35.228,0.95306,0.00079,-0.00452,-0.30258
1746916797.8990262,0.091,0.043,10.075,0.242,-0.467,-35.228,0.95306,0.00079,-0.00452,-0.30258
1746916797.9011722,0.091,0.048,10.06,0.242,-0.467,-35.228,0.95306,0.00079,-0.00452,-0.30258
1746916797.9503334,0.091,0.048,10.06,0.242,-0.467,-35.228,0.95306,0.00079,-0.00452,-0.30258
1746916797.9513597,0.077,0.043,10.056,0.242,-0.467,-35.228,0.95306,0.00079,-0.00452,-0.30258
1746916797.9523528,0.077,0.043,10.056,0.242,-0.467,-35.228,0.95306,0.00079,-0.00452,-0.30258
1746916797.9543655,0.067,0.048,10.065,0.242,-0.467,-35.228,0.95306,0.00079,-0.00452,-0.30258
1746916797.980271,0.067,0.048,10.065,0.242,-0.467,-35.228,0.95306,0.00079,-0.00452,-0.30258
1746916797.9808862,0.072,0.038,10.051,0.242,-0.467,-35.228,0.95306,0.00079,-0.00452,-0.30258
1746916797.9828937,0.072,0.038,10.051,0.242,-0.467,-35.228,0.95306,0.00079,-0.00452,-0.30258
1746916797.9838853,0.091,0.034,10.07,0.242,-0.467,-35.228,0.95306,0.00079,-0.00452,-0.30258
1746916798.0107281,0.091,0.034,10.07,0.242,-0.467,-35.228,0.95306,0.00079,-0.00452,-0.30258
1746916798.0123725,0.096,0.038,10.075,0.242,-0.467,-35.228,0.95306,0.00079,-0.00452,-0.30258
1746916798.0133643,0.096,0.038,10.075,0.242,-0.467,-35.228,0.95306,0.00079,-0.00452,-0.30258
1746916798.0143585,0.091,0.043,10.07,0.242,-0.467,-35.228,0.95306,0.00079,-0.00452,-0.30258
1746916798.0700805,0.091,0.043,10.07,0.242,-0.467,-35.228,0.95306,0.00079,-0.00452,-0.30258
1746916798.0720804,0.081,0.043,10.065,0.242,-0.467,-35.228,0.95306,0.00079,-0.00452,-0.30258
1746916798.0730762,0.081,0.043,10.065,0.242,-0.467,-35.228,0.95306,0.00079,-0.00452,-0.30258
1746916798.0740993,0.067,0.034,10.056,0.242,-0.467,-35.228,0.95306,0.00079,-0.00452,-0.30258
1746916798.0999584,0.067,0.034,10.056,0.242,-0.467,-35.228,0.95306,0.00079,-0.00452,-0.30258
1746916798.100953,0.072,0.048,10.065,0.242,-0.467,-35.228,0.95306,0.00079,-0.00452,-0.30258
1746916798.101952,0.072,0.048,10.065,0.242,-0.467,-35.228,0.95306,0.00079,-0.00452,-0.30258
1746916798.103956,0.081,0.048,10.056,0.242,-0.467,-35.228,0.95306,0.00079,-0.00452,-0.30258
1746916798.1305423,0.081,0.048,10.056,0.242,-0.467,-35.228,0.95306,0.00079,-0.00452,-0.30258
1746916798.1315458,0.091,0.038,10.06,0.242,-0.467,-35.228,0.95306,0.00079,-0.00452,-0.30258
1746916798.1335468,0.091,0.038,10.06,0.242,-0.467,-35.228,0.95306,0.00079,-0.00452,-0.30258
1746916798.1345453,0.091,0.043,10.07,0.242,-0.467,-35.228,0.95306,0.00079,-0.00452,-0.30258
1746916798.1902378,0.091,0.043,10.07,0.242,-0.467,-35.228,0.95306,0.00079,-0.00452,-0.30258
1746916798.191237,0.081,0.048,10.065,0.242,-0.467,-35.228,0.95306,0.00079,-0.00452,-0.30258
1746916798.1922421,0.081,0.048,10.065,0.242,-0.467,-35.228,0.95306,0.00079,-0.00452,-0.30258
1746916798.1942363,0.081,0.043,10.06,0.242,-0.467,-35.228,0.95306,0.00079,-0.00452,-0.30258
1746916798.2500215,0.081,0.043,10.06,0.242,-0.467,-35.228,0.95306,0.00079,-0.00452,-0.30258
1746916798.2525566,0.081,0.034,10.056,0.242,-0.467,-35.228,0.95306,0.00079,-0.00452,-0.30258
1746916798.2535586,0.081,0.034,10.056,0.242,-0.467,-35.228,0.95306,0.00079,-0.00452,-0.30258
1746916798.2545557,0.072,0.043,10.075,0.242,-0.467,-35.228,0.95306,0.00079,-0.00455,-0.30258
1746916798.2565634,0.072,0.043,10.075,0.242,-0.467,-35.228,0.95306,0.00079,-0.00455,-0.30258
1746916798.2575548,0.077,0.043,10.056,0.242,-0.467,-35.228,0.95306,0.00079,-0.00455,-0.30258
1746916798.2585595,0.077,0.043,10.056,0.242,-0.467,-35.228,0.95306,0.00079,-0.00455,-0.30258
1746916798.2595534,0.086,0.038,10.06,0.242,-0.467,-35.228,0.95306,0.00079,-0.00455,-0.30258
1746916798.3094764,0.086,0.038,10.06,0.242,-0.467,-35.228,0.95306,0.00079,-0.00455,-0.30258
1746916798.3114765,0.081,0.038,10.07,0.242,-0.467,-35.228,0.95306,0.00079,-0.00455,-0.30258
1746916798.3124788,0.081,0.038,10.07,0.242,-0.467,-35.228,0.95306,0.00079,-0.00455,-0.30258
1746916798.3134758,0.077,0.038,10.056,0.242,-0.467,-35.228,0.95306,0.00079,-0.00455,-0.30258
1746916798.3393111,0.077,0.038,10.056,0.242,-0.467,-35.228,0.95306,0.00079,-0.00455,-0.30258
1746916798.3413043,0.072,0.048,10.056,0.242,-0.467,-35.228,0.95306,0.00079,-0.00455,-0.30258
1746916798.3423028,0.072,0.048,10.056,0.242,-0.467,-35.228,0.95306,0.00079,-0.00455,-0.30258
1746916798.3433042,0.091,0.048,10.075,0.242,-0.467,-35.228,0.95306,0.00079,-0.00455,-0.30258
1746916798.3702116,0.091,0.048,10.075,0.242,-0.467,-35.228,0.95306,0.00079,-0.00455,-0.30258
1746916798.3712013,0.091,0.043,10.06,0.242,-0.467,-35.228,0.95306,0.00079,-0.00455,-0.30258
1746916798.3732157,0.091,0.043,10.06,0.242,-0.467,-35.228,0.95306,0.00079,-0.00455,-0.30258
1746916798.3741992,0.086,0.038,10.07,0.242,-0.467,-35.228,0.95306,0.00079,-0.00455,-0.30258
1746916798.430203,0.086,0.038,10.07,0.242,-0.467,-35.228,0.95306,0.00079,-0.00455,-0.30258
1746916798.4312053,0.072,0.038,10.06,0.242,-0.467,-35.228,0.95306,0.00079,-0.00455,-0.30258
1746916798.4321995,0.072,0.038,10.06,0.242,-0.467,-35.228,0.95306,0.00079,-0.00455,-0.30258
1746916798.4332,0.072,0.038,10.056,0.242,-0.467,-35.228,0.95306,0.00079,-0.00455,-0.30258
1746916798.4597397,0.072,0.038,10.056,0.242,-0.467,-35.228,0.95306,0.00079,-0.00455,-0.30258
1746916798.4607375,0.077,0.038,10.06,0.242,-0.467,-35.228,0.95306,0.00079,-0.00455,-0.30258
1746916798.461739,0.077,0.038,10.06,0.242,-0.467,-35.228,0.95306,0.00079,-0.00455,-0.30258
1746916798.4627407,0.091,0.038,10.065,0.242,-0.467,-35.228,0.95306,0.00079,-0.00455,-0.30258
1746916798.4887395,0.091,0.038,10.065,0.242,-0.467,-35.228,0.95306,0.00079,-0.00455,-0.30258
1746916798.4907444,0.086,0.057,10.07,0.242,-0.467,-35.228,0.95306,0.00079,-0.00455,-0.30258
1746916798.491744,0.086,0.057,10.07,0.242,-0.467,-35.228,0.95306,0.00079,-0.00455,-0.30258
1746916798.4927416,0.077,0.048,10.06,0.242,-0.467,-35.228,0.95306,0.00079,-0.00455,-0.30258
1746916798.5502236,0.077,0.048,10.06,0.242,-0.467,-35.228,0.95306,0.00079,-0.00455,-0.30258
1746916798.5512278,0.077,0.043,10.07,0.242,-0.467,-35.228,0.95306,0.00079,-0.00455,-0.30258
1746916798.5522237,0.077,0.043,10.07,0.242,-0.467,-35.228,0.95306,0.00079,-0.00455,-0.30258
1746916798.5533922,0.081,0.043,10.07,0.242,-0.467,-35.228,0.95306,0.00079,-0.00455,-0.30258
1746916798.5807269,0.081,0.043,10.07,0.242,-0.467,-35.228,0.95306,0.00079,-0.00455,-0.30258
1746916798.5813634,0.077,0.043,10.06,0.242,-0.467,-35.228,0.95306,0.00079,-0.00455,-0.30258
1746916798.5824616,0.077,0.043,10.06,0.242,-0.467,-35.228,0.95306,0.00079,-0.00455,-0.30258
1746916798.5833728,0.086,0.034,10.06,0.242,-0.467,-35.228,0.95306,0.00079,-0.00455,-0.30258
1746916798.609577,0.086,0.034,10.06,0.242,-0.467,-35.228,0.95306,0.00079,-0.00455,-0.30258
1746916798.611572,0.086,0.043,10.07,0.242,-0.467,-35.228,0.95306,0.00079,-0.00455,-0.30258
1746916798.6125705,0.086,0.043,10.07,0.242,-0.467,-35.228,0.95306,0.00079,-0.00455,-0.30258
1746916798.6135795,0.081,0.048,10.07,0.242,-0.467,-35.228,0.95306,0.00079,-0.00455,-0.30258
1746916798.6996186,0.081,0.048,10.07,0.242,-0.467,-35.228,0.95306,0.00079,-0.00455,-0.30258
1746916798.7016406,0.072,0.043,10.056,0.242,-0.467,-35.228,0.95306,0.00079,-0.00455,-0.30258
1746916798.702615,0.072,0.043,10.056,0.242,-0.467,-35.228,0.95306,0.00079,-0.00455,-0.30258
1746916798.7036188,0.077,0.043,10.056,0.242,-0.467,-35.228,0.95306,0.00079,-0.00455,-0.30258
1746916798.705617,0.077,0.043,10.056,0.242,-0.467,-35.228,0.95306,0.00079,-0.00455,-0.30258
1746916798.7066188,0.077,0.038,10.08,0.242,-0.467,-35.228,0.95306,0.00079,-0.00455,-0.30258
1746916798.7076113,0.077,0.038,10.08,0.242,-0.467,-35.228,0.95306,0.00079,-0.00455,-0.30258
1746916798.7086174,0.086,0.038,10.07,0.242,-0.467,-35.228,0.95306,0.00079,-0.00455,-0.30258
1746916798.760751,0.086,0.038,10.07,0.242,-0.467,-35.228,0.95306,0.00079,-0.00455,-0.30258
1746916798.762749,0.096,0.038,10.056,0.242,-0.467,-35.228,0.95306,0.00079,-0.00455,-0.30258
1746916798.7637668,0.096,0.038,10.056,0.242,-0.467,-35.228,0.95306,0.00079,-0.00455,-0.30258
1746916798.7647538,0.081,0.038,10.07,0.242,-0.467,-35.228,0.95306,0.00079,-0.00455,-0.30258
1746916798.789586,0.081,0.038,10.07,0.242,-0.467,-35.228,0.95306,0.00079,-0.00455,-0.30258
1746916798.7915902,0.077,0.048,10.075,0.242,-0.467,-35.228,0.95306,0.00079,-0.00455,-0.30258
1746916798.7925909,0.077,0.048,10.075,0.242,-0.467,-35.228,0.95306,0.00079,-0.00455,-0.30258
1746916798.79359,0.072,0.043,10.056,0.242,-0.467,-35.228,0.95306,0.00079,-0.00455,-0.30258
1746916798.8202233,0.072,0.043,10.056,0.242,-0.467,-35.228,0.95306,0.00079,-0.00455,-0.30258
1746916798.8212154,0.081,0.048,10.056,0.242,-0.467,-35.228,0.95306,0.00079,-0.00455,-0.30258
1746916798.822218,0.081,0.048,10.056,0.242,-0.467,-35.228,0.95306,0.00079,-0.00455,-0.30258
1746916798.8232226,0.081,0.043,10.07,0.242,-0.467,-35.228,0.95306,0.00079,-0.00455,-0.30258
1746916798.8497458,0.081,0.043,10.07,0.242,-0.467,-35.228,0.95306,0.00079,-0.00455,-0.30258
1746916798.8513904,0.086,0.038,10.065,0.242,-0.467,-35.228,0.95306,0.00079,-0.00455,-0.30258
1746916798.8523893,0.086,0.038,10.065,0.242,-0.467,-35.228,0.95306,0.00079,-0.00455,-0.30258
1746916798.8529248,0.086,0.043,10.051,0.242,-0.467,-35.228,0.95306,0.00079,-0.00455,-0.30258
1746916798.9107985,0.086,0.043,10.051,0.242,-0.467,-35.228,0.95306,0.00079,-0.00455,-0.30258
1746916798.9117992,0.081,0.038,10.065,0.242,-0.467,-35.228,0.95306,0.00079,-0.00455,-0.30258
1746916798.9137986,0.081,0.038,10.065,0.242,-0.467,-35.228,0.95306,0.00079,-0.00455,-0.30258
1746916798.9148033,0.086,0.043,10.075,0.242,-0.467,-35.228,0.95306,0.00079,-0.00455,-0.30258
1746916798.9399698,0.086,0.043,10.075,0.242,-0.467,-35.228,0.95306,0.00079,-0.00455,-0.30258
1746916798.9419792,0.081,0.053,10.056,0.242,-0.467,-35.228,0.95306,0.00079,-0.00455,-0.30258
1746916798.942977,0.081,0.053,10.056,0.242,-0.467,-35.228,0.95306,0.00079,-0.00455,-0.30258
1746916798.9439769,0.081,0.048,10.041,0.242,-0.467,-35.228,0.95306,0.00079,-0.00455,-0.30258
1746916799.000479,0.081,0.048,10.041,0.242,-0.467,-35.228,0.95306,0.00079,-0.00455,-0.30258
1746916799.0014825,0.077,0.043,10.07,0.242,-0.467,-35.228,0.95306,0.00079,-0.00455,-0.30258
1746916799.003478,0.077,0.043,10.07,0.242,-0.467,-35.228,0.95306,0.00079,-0.00455,-0.30258
1746916799.0044847,0.077,0.038,10.065,0.242,-0.467,-35.228,0.95306,0.00079,-0.00455,-0.30258
1746916799.0307214,0.077,0.038,10.065,0.242,-0.467,-35.228,0.95306,0.00079,-0.00455,-0.30258
1746916799.0326793,0.077,0.038,10.046,0.242,-0.467,-35.228,0.95306,0.00079,-0.00455,-0.30258
1746916799.0333562,0.077,0.038,10.046,0.242,-0.467,-35.228,0.95306,0.00079,-0.00455,-0.30258
1746916799.034361,0.086,0.038,10.051,0.242,-0.467,-35.228,0.95306,0.00079,-0.00455,-0.30258
1746916799.0902424,0.086,0.038,10.051,0.242,-0.467,-35.228,0.95306,0.00079,-0.00455,-0.30258
1746916799.091608,0.096,0.043,10.07,0.242,-0.467,-35.228,0.95306,0.00079,-0.00455,-0.30258
1746916799.0922441,0.096,0.043,10.07,0.242,-0.467,-35.228,0.95306,0.00079,-0.00455,-0.30258
1746916799.0942433,0.086,0.043,10.06,0.242,-0.467,-35.228,0.95306,0.00079,-0.00455,-0.30258
1746916799.0942433,0.086,0.043,10.06,0.242,-0.467,-35.228,0.95306,0.00079,-0.00455,-0.30258
1746916799.0962455,0.081,0.048,10.051,0.242,-0.467,-35.228,0.95306,0.00079,-0.00455,-0.30258
1746916799.0982442,0.081,0.048,10.051,0.242,-0.467,-35.228,0.95306,0.00079,-0.00455,-0.30258
1746916799.0982442,0.077,0.048,10.06,0.242,-0.467,-35.228,0.95306,0.00079,-0.00455,-0.30258
1746916799.1503403,0.077,0.048,10.06,0.242,-0.467,-35.228,0.95306,0.00079,-0.00455,-0.30258
1746916799.1513398,0.067,0.038,10.07,0.242,-0.467,-35.228,0.95306,0.00079,-0.00455,-0.30258
1746916799.1528559,0.067,0.038,10.07,0.242,-0.467,-35.228,0.95306,0.00079,-0.00455,-0.30258
1746916799.153879,0.077,0.029,10.056,0.242,-0.467,-35.228,0.95306,0.00079,-0.00455,-0.30258
1746916799.1809247,0.077,0.029,10.056,0.242,-0.467,-35.228,0.95306,0.00079,-0.00455,-0.30258
1746916799.1819308,0.086,0.034,10.056,0.242,-0.467,-35.228,0.95306,0.00079,-0.00455,-0.30258
1746916799.182926,0.086,0.034,10.056,0.242,-0.467,-35.228,0.95306,0.00079,-0.00455,-0.30258
1746916799.1839223,0.091,0.043,10.07,0.242,-0.467,-35.228,0.95306,0.00079,-0.00455,-0.30258
1746916799.2108474,0.091,0.043,10.07,0.242,-0.467,-35.228,0.95306,0.00079,-0.00455,-0.30258
1746916799.2114859,0.081,0.048,10.07,0.242,-0.467,-35.228,0.95306,0.00079,-0.00455,-0.30258
1746916799.2134876,0.081,0.048,10.07,0.242,-0.467,-35.228,0.95306,0.00079,-0.00455,-0.30258
1746916799.2144947,0.081,0.043,10.046,0.242,-0.467,-35.228,0.95306,0.00079,-0.00455,-0.30258
1746916799.300576,0.081,0.043,10.046,0.242,-0.467,-35.228,0.95306,0.00079,-0.00455,-0.30258
1746916799.4152856,0.086,0.043,10.051,0.242,-0.467,-35.228,0.95306,0.00079,-0.00455,-0.30258
1746916799.4403083,0.086,0.043,10.051,0.242,-0.467,-35.228,0.95306,0.00079,-0.00455,-0.30258
1746916799.441303,0.086,0.048,10.08,0.242,-0.467,-35.228,0.95306,0.00079,-0.00455,-0.30258
1746916799.442303,0.086,0.048,10.08,0.242,-0.467,-35.228,0.95306,0.00079,-0.00455,-0.30258
1746916799.4432998,0.081,0.043,10.075,0.242,-0.467,-35.228,0.95306,0.00079,-0.00455,-0.30258
1746916799.444304,0.081,0.043,10.075,0.242,-0.467,-35.228,0.95306,0.00079,-0.00455,-0.30258
1746916799.444304,0.077,0.038,10.041,0.242,-0.467,-35.228,0.95306,0.00079,-0.00455,-0.30258
1746916799.4453027,0.077,0.038,10.041,0.242,-0.467,-35.228,0.95306,0.00079,-0.00455,-0.30258
1746916799.4463062,0.072,0.029,10.056,0.242,-0.467,-35.228,0.95306,0.00079,-0.00455,-0.30258
1746916799.4463062,0.072,0.029,10.056,0.242,-0.467,-35.228,0.95306,0.00079,-0.00455,-0.30258
1746916799.4473028,0.077,0.038,10.075,0.242,-0.467,-35.228,0.95306,0.00079,-0.00455,-0.30258
1746916799.4483118,0.077,0.038,10.075,0.242,-0.467,-35.228,0.95306,0.00079,-0.00455,-0.30258
1746916799.4493024,0.086,0.038,10.065,0.242,-0.467,-35.228,0.95306,0.00079,-0.00455,-0.30258
1746916799.4493024,0.086,0.038,10.065,0.242,-0.467,-35.228,0.95306,0.00079,-0.00455,-0.30258
1746916799.4503055,0.086,0.048,10.051,0.242,-0.467,-35.228,0.95306,0.00079,-0.00455,-0.30258
1746916799.4513023,0.086,0.048,10.051,0.242,-0.467,-35.228,0.95306,0.00079,-0.00455,-0.30258
1746916799.4513023,0.077,0.048,10.051,0.242,-0.467,-35.228,0.95306,0.00079,-0.00455,-0.30258
1746916799.4523034,0.077,0.048,10.051,0.242,-0.467,-35.228,0.95306,0.00079,-0.00455,-0.30258
1746916799.4533072,0.081,0.034,10.07,0.242,-0.467,-35.228,0.95306,0.00079,-0.00455,-0.30258
1746916799.600252,0.081,0.034,10.07,0.242,-0.467,-35.228,0.95306,0.00079,-0.00455,-0.30258
1746916799.6022546,0.086,0.034,10.07,0.242,-0.467,-35.228,0.95306,0.00079,-0.00455,-0.30258
1746916799.6042514,0.086,0.034,10.07,0.242,-0.467,-35.228,0.95306,0.00079,-0.00455,-0.30258
1746916799.6052618,0.096,0.038,10.065,0.242,-0.467,-35.228,0.95306,0.00079,-0.00455,-0.30258
1746916799.6072512,0.096,0.038,10.065,0.242,-0.467,-35.228,0.95306,0.00079,-0.00455,-0.30258
1746916799.6082635,0.086,0.053,10.06,0.242,-0.467,-35.228,0.95306,0.00079,-0.00455,-0.30258
1746916799.6092544,0.086,0.053,10.06,0.242,-0.467,-35.228,0.95306,0.00079,-0.00455,-0.30258
1746916799.610248,0.067,0.048,10.051,0.242,-0.467,-35.228,0.95306,0.00079,-0.00455,-0.30258
1746916799.6112592,0.067,0.048,10.051,0.242,-0.467,-35.228,0.95306,0.00079,-0.00455,-0.30258
1746916799.6122491,0.072,0.034,10.046,0.242,-0.467,-35.228,0.95306,0.00079,-0.00455,-0.30258
1746916799.6132543,0.072,0.034,10.046,0.242,-0.467,-35.228,0.95306,0.00079,-0.00455,-0.30258
1746916799.61425,0.081,0.029,10.07,0.242,-0.467,-35.228,0.95306,0.00079,-0.00455,-0.30258
1746916799.6152494,0.081,0.029,10.07,0.242,-0.467,-35.228,0.95306,0.00079,-0.00455,-0.30258
1746916799.6172533,0.091,0.038,10.07,0.242,-0.467,-35.228,0.95306,0.00079,-0.00455,-0.30258
1746916799.6182523,0.091,0.038,10.07,0.242,-0.467,-35.228,0.95306,0.00079,-0.00455,-0.30258
1746916799.6192527,0.096,0.048,10.056,0.242,-0.467,-35.228,0.95306,0.00079,-0.00455,-0.30258
1746916799.6599927,0.096,0.048,10.056,0.242,-0.467,-35.228,0.95306,0.00079,-0.00455,-0.30258
1746916799.6609874,0.081,0.048,10.051,0.242,-0.467,-35.228,0.95306,0.00079,-0.00455,-0.30258
1746916799.662986,0.081,0.048,10.051,0.242,-0.467,-35.228,0.95306,0.00079,-0.00455,-0.30258
1746916799.6643684,0.072,0.043,10.065,0.242,-0.467,-35.228,0.95306,0.00079,-0.00455,-0.30258
1746916799.6649923,0.072,0.043,10.065,0.242,-0.467,-35.228,0.95306,0.00079,-0.00455,-0.30258
1746916799.666993,0.077,0.034,10.07,0.242,-0.467,-35.228,0.95306,0.00079,-0.00455,-0.30258
1746916799.6679883,0.077,0.034,10.07,0.242,-0.467,-35.228,0.95306,0.00079,-0.00455,-0.30258
1746916799.6689873,0.081,0.043,10.046,0.242,-0.467,-35.228,0.95306,0.00079,-0.00455,-0.30258
1746916799.7197618,0.081,0.043,10.046,0.242,-0.467,-35.228,0.95306,0.00079,-0.00455,-0.30258
1746916799.751768,0.086,0.048,10.065,0.242,-0.467,-35.228,0.95306,0.00079,-0.00455,-0.30258
1746916799.753299,0.086,0.048,10.065,0.242,-0.467,-35.228,0.95306,0.00079,-0.00455,-0.30258
1746916799.7543259,0.081,0.043,10.065,0.242,-0.467,-35.228,0.95306,0.00079,-0.00455,-0.30258
1746916799.7563288,0.081,0.043,10.065,0.242,-0.467,-35.228,0.95306,0.00079,-0.00455,-0.30258
1746916799.757322,0.081,0.034,10.06,0.242,-0.467,-35.228,0.95306,0.00079,-0.00455,-0.30258
1746916799.759316,0.081,0.034,10.06,0.242,-0.467,-35.228,0.95306,0.00079,-0.00455,-0.30258
1746916799.7603192,0.072,0.034,10.06,0.242,-0.467,-35.228,0.95306,0.00079,-0.00455,-0.30258
1746916799.7807841,0.072,0.034,10.06,0.242,-0.467,-35.228,0.95306,0.00079,-0.00455,-0.30258
1746916799.7815027,0.077,0.043,10.075,0.242,-0.467,-35.228,0.95306,0.00079,-0.00455,-0.30258
1746916799.7824934,0.077,0.043,10.075,0.242,-0.467,-35.228,0.95306,0.00079,-0.00455,-0.30258
1746916799.783489,0.077,0.048,10.056,0.242,-0.467,-35.228,0.95306,0.00079,-0.00455,-0.30258
1746916799.840502,0.077,0.048,10.056,0.242,-0.467,-35.228,0.95306,0.00079,-0.00455,-0.30258
1746916799.87167,0.072,0.038,10.056,0.242,-0.467,-35.228,0.95306,0.00079,-0.00455,-0.30258
1746916799.8726752,0.072,0.038,10.056,0.242,-0.467,-35.228,0.95306,0.00079,-0.00455,-0.30258
1746916799.8736794,0.077,0.038,10.07,0.242,-0.467,-35.228,0.95306,0.00079,-0.00455,-0.30258
1746916799.875675,0.077,0.038,10.07,0.242,-0.467,-35.228,0.95306,0.00079,-0.00455,-0.30258
1746916799.876672,0.081,0.034,10.07,0.242,-0.467,-35.228,0.95306,0.00079,-0.00455,-0.30258
1746916799.8776724,0.081,0.034,10.07,0.242,-0.467,-35.228,0.95306,0.00079,-0.00455,-0.30258
1746916799.878673,0.086,0.038,10.051,0.242,-0.467,-35.228,0.95306,0.00079,-0.00455,-0.30258
1746916799.8998477,0.086,0.038,10.051,0.242,-0.467,-35.228,0.95306,0.00079,-0.00455,-0.30258
1746916799.901839,0.081,0.038,10.065,0.242,-0.467,-35.228,0.95306,0.00079,-0.00455,-0.30258
1746916799.9028425,0.081,0.038,10.065,0.242,-0.467,-35.228,0.95306,0.00079,-0.00455,-0.30258
1746916799.9038436,0.077,0.043,10.065,0.242,-0.467,-35.228,0.95306,0.00079,-0.00455,-0.30258
1746916799.960598,0.077,0.043,10.065,0.242,-0.467,-35.228,0.95306,0.00079,-0.00455,-0.30258
1746916799.9625983,0.077,0.038,10.051,0.242,-0.467,-35.228,0.95306,0.00079,-0.00455,-0.30258
1746916799.963238,0.077,0.038,10.051,0.242,-0.467,-35.228,0.95306,0.00079,-0.00455,-0.30258
1746916799.9642408,0.072,0.048,10.06,0.242,-0.467,-35.228,0.95306,0.00079,-0.00455,-0.30258
1746916799.989239,0.072,0.048,10.06,0.242,-0.467,-35.228,0.95306,0.00079,-0.00455,-0.30258
1746916799.9902406,0.081,0.038,10.065,0.242,-0.467,-35.228,0.95306,0.00079,-0.00455,-0.30258
1746916799.9912417,0.081,0.038,10.065,0.242,-0.467,-35.228,0.95306,0.00079,-0.00455,-0.30258
1746916799.9932427,0.091,0.038,10.056,0.242,-0.467,-35.228,0.95306,0.00079,-0.00455,-0.30258
1746916800.0494425,0.091,0.038,10.056,0.242,-0.467,-35.228,0.95306,0.00079,-0.00455,-0.30258
1746916800.0514486,0.091,0.043,10.07,0.242,-0.467,-35.228,0.95306,0.00079,-0.00455,-0.30258
1746916800.052447,0.091,0.043,10.07,0.242,-0.467,-35.228,0.95306,0.00079,-0.00455,-0.30258
1746916800.0539725,0.077,0.048,10.065,0.242,-0.467,-35.228,0.95306,0.00079,-0.00455,-0.30258
1746916800.0789917,0.077,0.048,10.065,0.242,-0.467,-35.228,0.95306,0.00079,-0.00455,-0.30258
1746916800.0809956,0.077,0.043,10.046,0.242,-0.467,-35.228,0.95306,0.00079,-0.00455,-0.30258
1746916800.0819976,0.077,0.043,10.046,0.242,-0.467,-35.228,0.95306,0.00079,-0.00455,-0.30258
1746916800.0829937,0.081,0.043,10.065,0.242,-0.467,-35.228,0.95306,0.00079,-0.00455,-0.30258
1746916800.1394248,0.081,0.043,10.065,0.242,-0.467,-35.228,0.95306,0.00079,-0.00455,-0.30258
1746916800.1404202,0.086,0.043,10.07,0.242,-0.467,-35.228,0.95306,0.00079,-0.00455,-0.30258
1746916800.1414273,0.086,0.043,10.07,0.242,-0.467,-35.228,0.95306,0.00079,-0.00455,-0.30258
1746916800.1424217,0.081,0.038,10.06,0.242,-0.467,-35.228,0.95306,0.00079,-0.00455,-0.30258
1746916800.1444194,0.081,0.038,10.06,0.242,-0.467,-35.228,0.95306,0.00079,-0.00455,-0.30258
1746916800.1454198,0.081,0.034,10.051,0.242,-0.467,-35.228,0.95306,0.00079,-0.00455,-0.30258
1746916800.146422,0.081,0.034,10.051,0.242,-0.467,-35.228,0.95306,0.00079,-0.00455,-0.30258
1746916800.1474195,0.081,0.038,10.07,0.242,-0.467,-35.228,0.95306,0.00079,-0.00455,-0.30258
1746916800.200111,0.081,0.038,10.07,0.242,-0.467,-35.228,0.95306,0.00079,-0.00455,-0.30258
1746916800.201751,0.077,0.043,10.07,0.242,-0.467,-35.228,0.95306,0.00079,-0.00455,-0.30258
1746916800.2027583,0.077,0.043,10.07,0.242,-0.467,-35.228,0.95306,0.00079,-0.00455,-0.30258
1746916800.2047508,0.072,0.043,10.036,0.242,-0.467,-35.228,0.95306,0.00079,-0.00455,-0.30258
1746916800.2301342,0.072,0.043,10.036,0.242,-0.467,-35.228,0.95306,0.00079,-0.00455,-0.30258
1746916800.23214,0.077,0.038,10.056,0.242,-0.467,-35.228,0.95306,0.00079,-0.00455,-0.30258
1746916800.2331314,0.077,0.038,10.056,0.242,-0.467,-35.228,0.95306,0.00079,-0.00455,-0.30258
1746916800.234129,0.081,0.038,10.075,0.242,-0.467,-35.228,0.95306,0.00079,-0.00455,-0.30258
1746916800.2601817,0.081,0.038,10.075,0.242,-0.467,-35.228,0.95306,0.00079,-0.00455,-0.30258
1746916800.2621834,0.086,0.034,10.051,0.242,-0.467,-35.228,0.95306,0.00079,-0.00455,-0.30258
1746916800.2631812,0.086,0.034,10.051,0.242,-0.467,-35.228,0.95306,0.00079,-0.00455,-0.30258
1746916800.2641802,0.081,0.038,10.051,0.242,-0.467,-35.228,0.95306,0.00079,-0.00455,-0.30258
1746916800.3200822,0.081,0.038,10.051,0.242,-0.467,-35.228,0.95306,0.00079,-0.00455,-0.30258
1746916800.3210738,0.072,0.048,10.08,0.242,-0.467,-35.228,0.95306,0.00079,-0.00455,-0.30258
1746916800.323086,0.072,0.048,10.08,0.242,-0.467,-35.228,0.95306,0.00079,-0.00455,-0.30258
1746916800.3240793,0.067,0.038,10.056,0.242,-0.467,-35.228,0.95306,0.00079,-0.00455,-0.30258
1746916800.349586,0.067,0.038,10.056,0.242,-0.467,-35.228,0.95306,0.00079,-0.00455,-0.30258
1746916800.3515863,0.072,0.038,10.041,0.242,-0.467,-35.228,0.95306,0.00079,-0.00455,-0.30258
1746916800.352589,0.072,0.038,10.041,0.242,-0.467,-35.228,0.95306,0.00079,-0.00455,-0.30258
1746916800.3541062,0.081,0.038,10.065,0.242,-0.467,-35.228,0.95306,0.00079,-0.00455,-0.30258
1746916800.3801265,0.081,0.038,10.065,0.242,-0.467,-35.228,0.95306,0.00079,-0.00455,-0.30258
1746916800.3811278,0.096,0.043,10.075,0.242,-0.467,-35.228,0.95306,0.00079,-0.00455,-0.30258
1746916800.3821247,0.096,0.043,10.075,0.242,-0.467,-35.228,0.95306,0.00079,-0.00455,-0.30258
1746916800.3841252,0.091,0.038,10.051,0.242,-0.467,-35.228,0.95306,0.00079,-0.00455,-0.30258
1746916800.4402125,0.091,0.038,10.051,0.242,-0.467,-35.228,0.95306,0.00079,-0.00455,-0.30258
1746916800.4412096,0.081,0.038,10.06,0.242,-0.467,-35.228,0.95306,0.00079,-0.00452,-0.30258
1746916800.4422097,0.081,0.038,10.06,0.242,-0.467,-35.228,0.95306,0.00079,-0.00452,-0.30258
1746916800.443215,0.072,0.038,10.084,0.242,-0.467,-35.228,0.95306,0.00079,-0.00452,-0.30258
1746916800.4697304,0.072,0.038,10.084,0.242,-0.467,-35.228,0.95306,0.00079,-0.00452,-0.30258
1746916800.4707274,0.067,0.034,10.056,0.242,-0.467,-35.228,0.95306,0.00079,-0.00452,-0.30258
1746916800.4717288,0.067,0.034,10.056,0.242,-0.467,-35.228,0.95306,0.00079,-0.00452,-0.30258
1746916800.4727283,0.081,0.034,10.046,0.242,-0.467,-35.228,0.95306,0.00079,-0.00452,-0.30258
1746916800.4999173,0.081,0.034,10.046,0.242,-0.467,-35.228,0.95306,0.00079,-0.00452,-0.30258
1746916800.5009162,0.086,0.038,10.075,0.242,-0.467,-35.228,0.95306,0.00079,-0.00452,-0.30258
1746916800.5019162,0.086,0.038,10.075,0.242,-0.467,-35.228,0.95306,0.00079,-0.00452,-0.30258
1746916800.502916,0.086,0.043,10.084,0.242,-0.467,-35.228,0.95306,0.00079,-0.00452,-0.30258
1746916800.560192,0.086,0.043,10.084,0.242,-0.467,-35.228,0.95306,0.00079,-0.00452,-0.30258
1746916800.561198,0.086,0.034,10.046,0.242,-0.467,-35.228,0.95306,0.00079,-0.00452,-0.30258
1746916800.563196,0.086,0.034,10.046,0.242,-0.467,-35.228,0.95306,0.00079,-0.00452,-0.30258
1746916800.5641954,0.086,0.038,10.065,0.242,-0.467,-35.228,0.95306,0.00079,-0.00452,-0.30258
1746916800.589254,0.086,0.038,10.065,0.242,-0.467,-35.228,0.95306,0.00076,-0.00452,-0.30258
1746916800.5902495,0.081,0.053,10.07,0.242,-0.467,-35.228,0.95306,0.00076,-0.00452,-0.30258
1746916800.5912478,0.081,0.053,10.07,0.242,-0.467,-35.228,0.95306,0.00076,-0.00452,-0.30258
1746916800.5922549,0.077,0.043,10.06,0.242,-0.467,-35.228,0.95306,0.00076,-0.00452,-0.30258
1746916800.6197972,0.077,0.043,10.06,0.242,-0.467,-35.228,0.95306,0.00076,-0.00452,-0.30258
1746916800.6207948,0.086,0.034,10.051,0.242,-0.467,-35.228,0.95306,0.00076,-0.00452,-0.30258
1746916800.6217897,0.086,0.034,10.051,0.242,-0.467,-35.228,0.95306,0.00076,-0.00452,-0.30258
1746916800.622796,0.077,0.034,10.06,0.242,-0.467,-35.228,0.95306,0.00076,-0.00452,-0.30258
1746916800.7100968,0.077,0.034,10.06,0.242,-0.467,-35.228,0.95306,0.00076,-0.00452,-0.30258
1746916800.7120943,0.072,0.038,10.06,0.242,-0.467,-35.228,0.95306,0.00076,-0.00452,-0.30258
1746916800.7130926,0.072,0.038,10.06,0.242,-0.467,-35.228,0.95306,0.00076,-0.00452,-0.30258
1746916800.7140944,0.062,0.043,10.046,0.242,-0.467,-35.228,0.95306,0.00076,-0.00452,-0.30258
1746916800.7401223,0.062,0.043,10.046,0.242,-0.467,-35.228,0.95306,0.00076,-0.00452,-0.30258
1746916800.742125,0.081,0.034,10.051,0.242,-0.467,-35.228,0.95306,0.00076,-0.00452,-0.30258
1746916800.7431223,0.081,0.034,10.051,0.242,-0.467,-35.228,0.95306,0.00076,-0.00452,-0.30258
1746916800.7441204,0.091,0.038,10.094,0.242,-0.467,-35.228,0.95306,0.00076,-0.00452,-0.30258
1746916800.7451193,0.091,0.038,10.094,0.242,-0.467,-35.228,0.95306,0.00076,-0.00452,-0.30258
1746916800.746121,0.101,0.053,10.06,0.242,-0.467,-35.228,0.95306,0.00076,-0.00452,-0.30258
1746916800.7481313,0.101,0.053,10.06,0.242,-0.467,-35.228,0.95306,0.00076,-0.00452,-0.30258
1746916800.749129,0.101,0.057,10.065,0.242,-0.467,-35.228,0.95306,0.00076,-0.00452,-0.30258
1746916800.7996485,0.101,0.057,10.065,0.242,-0.467,-35.228,0.95306,0.00076,-0.00452,-0.30258
1746916800.8006454,0.086,0.029,10.065,0.242,-0.467,-35.228,0.95306,0.00076,-0.00452,-0.30258
1746916800.8016448,0.086,0.029,10.065,0.242,-0.467,-35.228,0.95306,0.00076,-0.00452,-0.30258
1746916800.8026433,0.062,0.024,10.056,0.242,-0.467,-35.228,0.95306,0.00076,-0.00452,-0.30258
1746916800.8306487,0.062,0.024,10.056,0.242,-0.467,-35.228,0.95306,0.00076,-0.00452,-0.30258
1746916800.8326452,0.057,0.034,10.051,0.242,-0.467,-35.228,0.95306,0.00076,-0.00452,-0.30258
1746916800.8326452,0.057,0.034,10.051,0.242,-0.467,-35.228,0.95306,0.00076,-0.00452,-0.30258
1746916800.8336446,0.062,0.024,10.075,0.242,-0.467,-35.228,0.95306,0.00076,-0.00452,-0.30258
1746916800.8895874,0.062,0.024,10.075,0.242,-0.467,-35.228,0.95306,0.00076,-0.00452,-0.30258
1746916800.8915877,0.081,0.038,10.07,0.242,-0.467,-35.228,0.95306,0.00076,-0.00452,-0.30258
1746916800.8926,0.081,0.038,10.07,0.242,-0.467,-35.228,0.95306,0.00076,-0.00452,-0.30258
1746916800.893597,0.086,0.048,10.041,0.242,-0.467,-35.228,0.95306,0.00076,-0.00452,-0.30258
1746916800.9195962,0.086,0.048,10.041,0.242,-0.467,-35.228,0.95306,0.00076,-0.00452,-0.30258
1746916800.9205923,0.105,0.048,10.056,0.242,-0.467,-35.228,0.95306,0.00076,-0.00452,-0.30258
1746916800.921596,0.105,0.048,10.056,0.242,-0.467,-35.228,0.95306,0.00076,-0.00452,-0.30258
1746916800.9225943,0.101,0.053,10.089,0.242,-0.467,-35.228,0.95306,0.00076,-0.00452,-0.30258
1746916800.9485989,0.101,0.053,10.089,0.242,-0.467,-35.228,0.95306,0.00076,-0.00452,-0.30258
1746916800.9691143,0.086,0.048,10.075,0.242,-0.467,-35.228,0.95306,0.00076,-0.00452,-0.30258
1746916800.9701135,0.086,0.048,10.075,0.242,-0.467,-35.228,0.95306,0.00076,-0.00452,-0.30258
1746916800.9711168,0.077,0.034,10.046,0.242,-0.467,-35.228,0.95306,0.00076,-0.00452,-0.30258
1746916801.0091193,0.077,0.034,10.046,0.242,-0.467,-35.228,0.95306,0.00076,-0.00452,-0.30258
1746916801.010119,0.072,0.029,10.046,0.242,-0.467,-35.228,0.95306,0.00076,-0.00452,-0.30258
1746916801.0111182,0.072,0.029,10.046,0.242,-0.467,-35.228,0.95306,0.00076,-0.00452,-0.30258
1746916801.0121171,0.067,0.029,10.056,0.242,-0.467,-35.228,0.95306,0.00076,-0.00452,-0.30258
1746916801.0698311,0.067,0.029,10.056,0.242,-0.467,-35.228,0.95306,0.00076,-0.00452,-0.30258
1746916801.0988271,0.067,0.034,10.051,0.242,-0.467,-35.228,0.95306,0.00076,-0.00452,-0.30258
1746916801.0998273,0.067,0.034,10.051,0.236,-0.467,-35.228,0.95306,0.00076,-0.00452,-0.30258
1746916801.1008272,0.067,0.038,10.06,0.236,-0.467,-35.228,0.95306,0.00076,-0.00452,-0.30258
1746916801.1018271,0.067,0.038,10.06,0.236,-0.467,-35.228,0.95306,0.00076,-0.00452,-0.30258
1746916801.1028235,0.081,0.043,10.08,0.236,-0.467,-35.228,0.95306,0.00076,-0.00452,-0.30258
1746916801.1038277,0.081,0.043,10.08,0.236,-0.467,-35.228,0.95306,0.00076,-0.00452,-0.30258
1746916801.1048355,0.077,0.053,10.056,0.236,-0.467,-35.228,0.95306,0.00076,-0.00452,-0.30258
1746916801.129823,0.077,0.053,10.056,0.236,-0.467,-35.228,0.95306,0.00076,-0.00452,-0.30258
1746916801.1308265,0.081,0.053,10.036,0.236,-0.467,-35.228,0.95306,0.00076,-0.00452,-0.30258
1746916801.131827,0.081,0.053,10.036,0.236,-0.467,-35.228,0.95306,0.00076,-0.00452,-0.30258
1746916801.132822,0.091,0.043,10.065,0.236,-0.467,-35.228,0.95306,0.00076,-0.00452,-0.30258
1746916801.1600745,0.091,0.043,10.065,0.236,-0.467,-35.228,0.95306,0.00076,-0.00452,-0.30258
1746916801.1610787,0.096,0.024,10.089,0.236,-0.467,-35.228,0.95306,0.00076,-0.00452,-0.30258
1746916801.1610787,0.091,0.034,10.089,0.236,-0.467,-35.228,0.95306,0.00076,-0.00452,-0.30258
1746916801.1620743,0.091,0.034,10.089,0.236,-0.467,-35.228,0.95306,0.00076,-0.00452,-0.30258
1746916801.190076,0.086,0.048,10.051,0.236,-0.467,-35.228,0.95306,0.00076,-0.00452,-0.30258
1746916801.191074,0.086,0.048,10.051,0.236,-0.467,-35.228,0.95306,0.00076,-0.00452,-0.30258
1746916801.1920745,0.062,0.057,10.046,0.236,-0.467,-35.228,0.95306,0.00076,-0.00452,-0.30258
1746916801.193074,0.062,0.057,10.046,0.236,-0.467,-35.228,0.95306,0.00076,-0.00452,-0.30258
1746916801.2494357,0.057,0.053,10.041,0.236,-0.467,-35.228,0.95306,0.00076,-0.00452,-0.30258
1746916801.2504332,0.057,0.053,10.041,0.242,-0.467,-35.228,0.95306,0.00076,-0.00452,-0.30258
1746916801.2524478,0.057,0.038,10.065,0.242,-0.467,-35.228,0.95306,0.00076,-0.00452,-0.30258
1746916801.2534406,0.057,0.038,10.065,0.242,-0.467,-35.228,0.95306,0.00076,-0.00452,-0.30258
1746916801.2793138,0.081,0.034,10.07,0.242,-0.467,-35.228,0.95306,0.00076,-0.00452,-0.30258
1746916801.2803102,0.081,0.034,10.07,0.242,-0.467,-35.228,0.95306,0.00076,-0.00452,-0.30258
1746916801.2813096,0.091,0.038,10.06,0.242,-0.467,-35.228,0.95306,0.00076,-0.00452,-0.30258
1746916801.2823098,0.091,0.038,10.06,0.242,-0.467,-35.228,0.95306,0.00076,-0.00452,-0.30258
1746916801.3103106,0.096,0.034,10.06,0.242,-0.467,-35.228,0.95306,0.00076,-0.00452,-0.30258
1746916801.3113096,0.096,0.034,10.06,0.242,-0.467,-35.228,0.95306,0.00076,-0.00452,-0.30258
1746916801.3123102,0.081,0.038,10.06,0.242,-0.467,-35.228,0.95306,0.00076,-0.00452,-0.30258
1746916801.31431,0.081,0.038,10.06,0.242,-0.467,-35.228,0.95306,0.00076,-0.00452,-0.30258
1746916801.3698647,0.086,0.048,10.075,0.242,-0.467,-35.228,0.95306,0.00076,-0.00452,-0.30258
1746916801.370862,0.086,0.048,10.075,0.242,-0.467,-35.228,0.95306,0.00076,-0.00452,-0.30258
1746916801.3718615,0.081,0.048,10.06,0.242,-0.467,-35.228,0.95306,0.00076,-0.00452,-0.30258
1746916801.372865,0.081,0.048,10.06,0.242,-0.467,-35.228,0.95306,0.00076,-0.00452,-0.30258
1746916801.399853,0.096,0.048,10.065,0.242,-0.467,-35.228,0.95306,0.00076,-0.00452,-0.30258
1746916801.399853,0.096,0.048,10.065,0.242,-0.467,-35.228,0.95306,0.00076,-0.00452,-0.30258
1746916801.4008586,0.091,0.048,10.065,0.242,-0.467,-35.228,0.95306,0.00076,-0.00452,-0.30258
1746916801.40186,0.091,0.048,10.065,0.242,-0.467,-35.228,0.95306,0.00076,-0.00452,-0.30258
1746916801.4288542,0.081,0.038,10.06,0.242,-0.467,-35.228,0.95306,0.00076,-0.00452,-0.30258
1746916801.4298549,0.081,0.038,10.06,0.242,-0.467,-35.228,0.95306,0.00076,-0.00452,-0.30258
1746916801.4308558,0.072,0.029,10.041,0.242,-0.467,-35.228,0.95306,0.00076,-0.00452,-0.30258
1746916801.4308558,0.072,0.029,10.041,0.242,-0.467,-35.228,0.95306,0.00076,-0.00452,-0.30258
1746916801.5193782,0.062,0.029,10.06,0.242,-0.467,-35.228,0.95306,0.00076,-0.00452,-0.30258
1746916801.5203767,0.062,0.029,10.06,0.242,-0.467,-35.228,0.95306,0.00076,-0.00452,-0.30258
1746916801.5213776,0.067,0.038,10.051,0.242,-0.467,-35.228,0.95306,0.00076,-0.00452,-0.30258
1746916801.522377,0.067,0.038,10.051,0.242,-0.467,-35.228,0.95306,0.00076,-0.00452,-0.30258
1746916801.5233762,0.081,0.043,10.065,0.242,-0.467,-35.228,0.95306,0.00076,-0.00452,-0.30258
1746916801.5243778,0.081,0.043,10.065,0.242,-0.467,-35.228,0.95306,0.00076,-0.00452,-0.30258
1746916801.525377,0.101,0.048,10.08,0.242,-0.467,-35.228,0.95306,0.00076,-0.00452,-0.30258
1746916801.5263777,0.101,0.048,10.08,0.242,-0.467,-35.228,0.95306,0.00076,-0.00452,-0.30258
1746916801.5496821,0.101,0.053,10.065,0.242,-0.467,-35.228,0.95306,0.00076,-0.00452,-0.30258
1746916801.5802598,0.101,0.053,10.065,0.242,-0.467,-35.228,0.95306,0.00076,-0.00452,-0.30258
1746916801.581262,0.086,0.053,10.06,0.242,-0.467,-35.228,0.95306,0.00076,-0.00452,-0.30258
1746916801.5822637,0.086,0.053,10.06,0.242,-0.467,-35.228,0.95306,0.00076,-0.00452,-0.30258
1746916801.6102688,0.072,0.038,10.07,0.242,-0.467,-35.228,0.95306,0.00076,-0.00452,-0.30258
1746916801.6112747,0.072,0.038,10.07,0.242,-0.467,-35.228,0.95306,0.00076,-0.00452,-0.30258
1746916801.6122706,0.057,0.019,10.051,0.242,-0.467,-35.228,0.95306,0.00076,-0.00452,-0.30258
1746916801.6132607,0.057,0.019,10.051,0.242,-0.467,-35.228,0.95306,0.00076,-0.00452,-0.30258
1746916801.640272,0.057,0.029,10.051,0.242,-0.467,-35.228,0.95306,0.00076,-0.00452,-0.30258
1746916801.641268,0.057,0.029,10.051,0.242,-0.467,-35.228,0.95306,0.00076,-0.00452,-0.30258
1746916801.642285,0.072,0.038,10.07,0.242,-0.467,-35.228,0.95306,0.00076,-0.00452,-0.30258
1746916801.6432886,0.072,0.038,10.07,0.242,-0.467,-35.228,0.95306,0.00076,-0.00452,-0.30258
1746916801.6688097,0.077,0.038,10.046,0.242,-0.467,-35.228,0.95306,0.00076,-0.00452,-0.30258
1746916801.6958072,0.077,0.038,10.046,0.242,-0.467,-35.228,0.95306,0.00076,-0.00452,-0.30258
1746916801.6968071,0.081,0.043,10.056,0.242,-0.467,-35.228,0.95306,0.00076,-0.00452,-0.30258
1746916801.697808,0.081,0.043,10.056,0.242,-0.461,-35.228,0.95306,0.00076,-0.00452,-0.30258
1746916801.7298281,0.086,0.048,10.075,0.242,-0.461,-35.228,0.95306,0.00076,-0.00452,-0.30258
1746916801.7318087,0.086,0.048,10.075,0.242,-0.461,-35.228,0.95306,0.00076,-0.00452,-0.30258
1746916801.7328093,0.081,0.048,10.06,0.242,-0.461,-35.228,0.95306,0.00076,-0.00452,-0.30258
1746916801.7338083,0.081,0.048,10.06,0.242,-0.461,-35.228,0.95306,0.00076,-0.00452,-0.30258
1746916801.7597158,0.101,0.043,10.065,0.242,-0.461,-35.228,0.95306,0.00076,-0.00452,-0.30258
1746916801.7607155,0.101,0.043,10.065,0.242,-0.461,-35.228,0.95306,0.00076,-0.00452,-0.30258
1746916801.761712,0.105,0.034,10.07,0.242,-0.461,-35.228,0.95306,0.00076,-0.00452,-0.30258
1746916801.7627113,0.105,0.034,10.07,0.242,-0.461,-35.228,0.95306,0.00076,-0.00452,-0.30258
1746916801.7897124,0.096,0.038,10.065,0.242,-0.461,-35.228,0.95306,0.00076,-0.00452,-0.30258
1746916801.8187075,0.096,0.038,10.065,0.242,-0.467,-35.228,0.95306,0.00076,-0.00452,-0.30258
1746916801.8197105,0.077,0.029,10.065,0.242,-0.467,-35.228,0.95306,0.00076,-0.00452,-0.30258
1746916801.8207088,0.077,0.029,10.065,0.242,-0.467,-35.228,0.95306,0.00076,-0.00452,-0.30258
1746916801.8487303,0.053,0.038,10.051,0.242,-0.467,-35.228,0.95306,0.00076,-0.00452,-0.30258
1746916801.849725,0.053,0.038,10.051,0.242,-0.467,-35.228,0.95306,0.00076,-0.00452,-0.30258
1746916801.850724,0.053,0.043,10.046,0.242,-0.467,-35.228,0.95306,0.00076,-0.00452,-0.30258
1746916801.8517234,0.053,0.043,10.046,0.242,-0.467,-35.228,0.95306,0.00076,-0.00452,-0.30258
1746916801.8788614,0.057,0.048,10.06,0.242,-0.467,-35.228,0.95306,0.00076,-0.00452,-0.30258
1746916801.880861,0.057,0.048,10.06,0.242,-0.467,-35.228,0.95306,0.00076,-0.00452,-0.30258
1746916801.8818686,0.081,0.038,10.07,0.242,-0.461,-35.228,0.95306,0.00076,-0.00452,-0.30258
1746916801.8828602,0.081,0.038,10.07,0.242,-0.461,-35.228,0.95306,0.00076,-0.00452,-0.30258
1746916801.908867,0.101,0.034,10.07,0.242,-0.461,-35.228,0.95306,0.00076,-0.00452,-0.30258
1746916801.9108646,0.101,0.034,10.07,0.242,-0.461,-35.228,0.95306,0.00076,-0.00452,-0.30258
1746916801.9118707,0.101,0.034,10.07,0.242,-0.461,-35.228,0.95306,0.00076,-0.00452,-0.30258
1746916801.9128685,0.101,0.034,10.07,0.236,-0.461,-35.228,0.95306,0.00076,-0.00452,-0.30258
1746916801.969386,0.081,0.048,10.056,0.236,-0.461,-35.228,0.95306,0.00076,-0.00452,-0.30258
1746916801.9703853,0.081,0.048,10.056,0.236,-0.461,-35.228,0.95306,0.00076,-0.00452,-0.30258
1746916801.971387,0.077,0.034,10.065,0.236,-0.461,-35.228,0.95306,0.00076,-0.00452,-0.30258
1746916801.971387,0.077,0.034,10.065,0.236,-0.461,-35.228,0.95306,0.00076,-0.00452,-0.30258
1746916801.998386,0.077,0.038,10.07,0.236,-0.461,-35.228,0.95306,0.00076,-0.00449,-0.30258
1746916801.999385,0.077,0.038,10.07,0.236,-0.461,-35.228,0.95306,0.00076,-0.00449,-0.30258
1746916801.999385,0.081,0.043,10.051,0.236,-0.461,-35.228,0.95306,0.00076,-0.00449,-0.30258
1746916802.0003853,0.081,0.043,10.051,0.236,-0.461,-35.228,0.95306,0.00076,-0.00449,-0.30258
1746916802.0589342,0.072,0.057,10.065,0.236,-0.461,-35.228,0.95306,0.00076,-0.00449,-0.30258
1746916802.1079345,0.072,0.057,10.065,0.236,-0.461,-35.228,0.95306,0.00076,-0.00449,-0.30258
1746916802.1089356,0.072,0.043,10.08,0.236,-0.461,-35.228,0.95306,0.00076,-0.00449,-0.30258
1746916802.110932,0.072,0.043,10.08,0.236,-0.461,-35.228,0.95306,0.00076,-0.00449,-0.30258
1746916802.111931,0.072,0.034,10.041,0.236,-0.461,-35.228,0.95306,0.00076,-0.00449,-0.30258
1746916802.11293,0.072,0.034,10.041,0.236,-0.461,-35.228,0.95306,0.00076,-0.00449,-0.30258
1746916802.11293,0.067,0.034,10.06,0.236,-0.461,-35.228,0.95306,0.00076,-0.00449,-0.30258
1746916802.1139288,0.067,0.034,10.06,0.236,-0.461,-35.228,0.95306,0.00076,-0.00449,-0.30258
1746916802.1189318,0.077,0.038,10.065,0.236,-0.461,-35.228,0.95306,0.00076,-0.00449,-0.30258
1746916802.119931,0.077,0.038,10.065,0.236,-0.461,-35.228,0.95306,0.00076,-0.00449,-0.30258
1746916802.1209278,0.086,0.034,10.056,0.236,-0.461,-35.228,0.95306,0.00076,-0.00449,-0.30258
1746916802.1219287,0.086,0.034,10.056,0.236,-0.461,-35.228,0.95306,0.00076,-0.00449,-0.30258
1746916802.180182,0.101,0.043,10.07,0.236,-0.461,-35.228,0.95306,0.00076,-0.00449,-0.30258
1746916802.2081842,0.101,0.043,10.07,0.236,-0.461,-35.228,0.95306,0.00076,-0.00449,-0.30258
1746916802.2091787,0.081,-0.153,9.965,0.247,-0.467,-35.228,0.95306,0.00076,-0.00449,-0.30258
1746916802.2101796,0.081,-0.153,9.965,0.269,-0.472,-35.228,0.95306,0.00076,-0.00449,-0.30258
1746916802.2111819,0.503,-0.781,10.084,0.264,-0.472,-35.057,0.95306,0.00076,-0.00449,-0.30258
1746916802.2121794,0.503,-0.781,10.084,0.22,-0.467,-34.722,0.95349,0.00092,-0.00464,-0.30118
1746916802.2131789,-0.618,-0.441,10.089,0.198,-0.467,-34.596,0.95349,0.00092,-0.00464,-0.30118
1746916802.2141786,-0.618,-0.441,10.089,0.198,-0.467,-34.689,0.95349,0.00092,-0.00464,-0.30118
1746916802.2391834,-0.254,-0.852,10.07,0.187,-0.467,-34.777,0.95349,0.00092,-0.00464,-0.30118
1746916802.2401793,-0.254,-0.852,10.07,0.17,-0.467,-34.843,0.95349,0.00092,-0.00464,-0.30118
1746916802.2411807,0.148,0.0,10.027,0.148,-0.461,-34.926,0.95349,0.00092,-0.00464,-0.30118
1746916802.2421842,0.148,0.0,10.027,0.121,-0.45,-35.013,0.95349,0.00092,-0.00464,-0.30118
1746916802.2997224,0.177,-0.225,10.084,0.11,-0.445,-35.085,0.95349,0.00092,-0.00464,-0.30118
1746916802.3447278,0.177,-0.225,10.084,0.104,-0.45,-35.145,0.95349,0.00092,-0.00464,-0.30118
1746916802.345727,0.101,-0.469,10.046,0.104,-0.456,-35.195,0.95349,0.00092,-0.00464,-0.30118
1746916802.345727,0.101,-0.469,10.046,0.104,-0.467,-35.244,0.95349,0.00092,-0.00464,-0.30118
1746916802.3467298,0.096,-0.407,10.084,0.115,-0.472,-35.288,0.95349,0.00092,-0.00464,-0.30118
1746916802.3477297,0.096,-0.407,10.084,0.126,-0.467,-35.327,0.95349,0.00092,-0.00464,-0.30118
1746916802.348729,0.005,-1.283,10.056,0.126,-0.472,-35.359,0.95349,0.00092,-0.00464,-0.30118
1746916802.348729,0.005,-1.283,10.056,0.104,-0.478,-35.398,0.95349,0.00092,-0.00464,-0.30118
1746916802.3602428,-0.292,-1.863,10.089,0.071,-0.483,-35.447,0.95349,0.00092,-0.00464,-0.30118
1746916802.3612435,-0.292,-1.863,10.089,0.027,-0.478,-35.519,0.95349,0.00092,-0.00464,-0.30118
1746916802.3612435,-0.704,-3.065,10.08,-0.011,-0.478,-35.64,0.95349,0.00092,-0.00464,-0.30118
1746916802.3622432,-0.704,-3.065,10.08,-0.055,-0.472,-35.815,0.95349,0.00092,-0.00464,-0.30118
1746916802.419247,-0.608,-2.442,10.108,-0.121,-0.467,-36.041,0.95349,0.00092,-0.00464,-0.30118
1746916802.4402447,-0.608,-2.442,10.108,-0.198,-0.45,-36.315,0.9505,-0.00256,-0.00339,-0.31049
1746916802.441247,-0.292,-1.786,10.003,-0.253,-0.417,-36.595,0.9505,-0.00256,-0.00339,-0.31049
1746916802.441247,-0.292,-1.786,10.003,-0.291,-0.374,-36.865,0.9505,-0.00256,-0.00339,-0.31049
1746916802.4482512,-0.086,-2.169,10.127,-0.33,-0.346,-37.161,0.9505,-0.00256,-0.00339,-0.31049
1746916802.4492502,-0.086,-2.169,10.127,-0.368,-0.335,-37.48,0.9505,-0.00256,-0.00339,-0.31049
1746916802.4492502,0.043,-2.116,10.041,-0.423,-0.324,-37.809,0.9505,-0.00256,-0.00339,-0.31049
1746916802.4502516,0.043,-2.116,10.041,-0.483,-0.308,-38.15,0.9505,-0.00256,-0.00339,-0.31049
1746916802.4795117,0.254,-2.303,10.137,-0.566,-0.291,-38.485,0.9505,-0.00256,-0.00339,-0.31049
1746916802.4805098,0.254,-2.303,10.137,-0.665,-0.28,-38.82,0.9505,-0.00256,-0.00339,-0.31049
1746916802.4805098,0.287,-2.045,10.046,-0.736,-0.28,-39.128,0.9505,-0.00256,-0.00339,-0.31049
1746916802.481511,0.287,-2.045,10.046,-0.78,-0.28,-39.402,0.9505,-0.00256,-0.00339,-0.31049
1746916802.5395174,-0.206,-3.275,10.214,-0.857,-0.269,-39.683,0.9505,-0.00256,-0.00339,-0.31049
1746916802.592071,-0.206,-3.275,10.214,-0.967,-0.247,-39.985,0.9505,-0.00256,-0.00339,-0.31049
1746916802.5940573,-0.412,-1.465,10.132,-1.044,-0.242,-40.325,0.9505,-0.00256,-0.00339,-0.31049
1746916802.5950558,-0.412,-1.465,10.132,-1.099,-0.264,-40.699,0.9505,-0.00256,-0.00339,-0.31049
1746916802.5960536,-0.321,0.632,10.099,-1.148,-0.275,-41.045,0.93692,-0.01001,0.00119,-0.34927
1746916802.597057,-0.321,0.632,10.099,-1.198,-0.291,-41.353,0.93692,-0.01001,0.00119,-0.34927
1746916802.5980535,-0.196,0.532,9.965,-1.219,-0.308,-41.666,0.93692,-0.01001,0.00119,-0.34927
1746916802.5990584,-0.196,0.532,9.965,-1.225,-0.335,-41.973,0.93692,-0.01001,0.00119,-0.34927
1746916802.601053,0.919,4.281,10.104,-1.252,-0.33,-42.177,0.93692,-0.01001,0.00119,-0.34927
1746916802.601053,0.919,4.281,10.104,-1.307,-0.297,-42.259,0.93692,-0.01001,0.00119,-0.34927
1746916802.602053,1.518,4.429,9.912,-1.313,-0.28,-42.198,0.93692,-0.01001,0.00119,-0.34927
1746916802.6030529,1.518,4.429,9.912,-1.274,-0.286,-41.984,0.93692,-0.01001,0.00119,-0.34927
1746916802.6585834,0.905,1.949,10.041,-1.252,-0.28,-41.814,0.93692,-0.01001,0.00119,-0.34927
1746916802.7295818,0.905,1.949,10.041,-1.258,-0.269,-41.693,0.93692,-0.01001,0.00119,-0.34927
1746916802.7295818,0.488,3.261,9.984,-1.236,-0.275,-41.655,0.93692,-0.01001,0.00119,-0.34927
1746916802.7305827,0.488,3.261,9.984,-1.192,-0.297,-41.704,0.93692,-0.01001,0.00119,-0.34927
1746916802.7315812,0.373,4.027,10.08,-1.132,-0.324,-41.715,0.93692,-0.01001,0.00119,-0.34927
1746916802.7315812,0.373,4.027,10.08,-1.06,-0.352,-41.682,0.93692,-0.01001,0.00119,-0.34927
1746916802.73258,-0.407,1.125,10.089,-0.983,-0.385,-41.66,0.93692,-0.01001,0.00119,-0.34927
1746916802.73258,-0.407,1.125,10.089,-0.901,-0.406,-41.638,0.93692,-0.01001,0.00119,-0.34927
1746916802.7485979,-0.302,1.523,10.056,-0.846,-0.417,-41.671,0.93692,-0.01001,0.00119,-0.34927
1746916802.7485979,-0.302,1.523,10.056,-0.807,-0.412,-41.759,0.93692,-0.01001,0.00119,-0.34927
1746916802.7495916,-0.235,2.83,10.07,-0.753,-0.406,-41.847,0.93692,-0.01001,0.00119,-0.34927
1746916802.750592,-0.235,2.83,10.07,-0.687,-0.406,-41.935,0.93692,-0.01001,0.00119,-0.34927
1746916802.7791083,-0.484,0.599,10.104,-0.621,-0.396,-42.067,0.93692,-0.01001,0.00119,-0.34927
1746916802.8031075,-0.484,0.599,10.104,-0.571,-0.379,-42.253,0.93692,-0.01001,0.00119,-0.34927
1746916802.804104,-0.144,0.302,10.008,-0.527,-0.363,-42.512,0.93692,-0.01001,0.00119,-0.34927
1746916802.804104,-0.144,0.302,10.008,-0.494,-0.346,-42.836,0.93692,-0.01001,0.00119,-0.34927
1746916802.808104,0.393,1.216,10.032,-0.456,-0.335,-43.094,0.93036,-0.00497,-0.00119,-0.36646
1746916802.809104,0.393,1.216,10.032,-0.412,-0.341,-43.286,0.93036,-0.00497,-0.00119,-0.36646
1746916802.8101056,0.23,0.498,10.07,-0.368,-0.341,-43.391,0.93036,-0.00497,-0.00119,-0.36646
1746916802.8101056,0.23,0.498,10.07,-0.324,-0.335,-43.407,0.93036,-0.00497,-0.00119,-0.36646
1746916802.8381023,0.067,-0.029,10.07,-0.28,-0.335,-43.407,0.93036,-0.00497,-0.00119,-0.36646
1746916802.8391035,0.067,-0.029,10.07,-0.242,-0.335,-43.396,0.93036,-0.00497,-0.00119,-0.36646
1746916802.8391035,0.077,-0.029,10.051,-0.209,-0.335,-43.391,0.93036,-0.00497,-0.00119,-0.36646
1746916802.840107,0.077,-0.029,10.051,-0.176,-0.335,-43.391,0.93036,-0.00497,-0.00119,-0.36646
1746916802.8986254,0.077,-0.034,10.07,-0.148,-0.341,-43.391,0.93036,-0.00497,-0.00119,-0.36646
1746916802.9430468,0.077,-0.034,10.07,-0.126,-0.341,-43.396,0.93036,-0.00497,-0.00119,-0.36646
1746916802.9430468,0.081,-0.024,10.06,-0.104,-0.341,-43.396,0.93036,-0.00497,-0.00119,-0.36646
1746916802.9439728,0.081,-0.024,10.06,-0.082,-0.341,-43.407,0.93036,-0.00497,-0.00119,-0.36646
1746916802.9449687,0.081,-0.024,10.06,-0.066,-0.341,-43.418,0.93036,-0.00497,-0.00119,-0.36646
1746916802.9449687,0.081,-0.024,10.06,-0.049,-0.341,-43.429,0.93036,-0.00497,-0.00119,-0.36646
1746916802.945971,0.091,-0.034,10.075,-0.038,-0.341,-43.445,0.93036,-0.00497,-0.00119,-0.36646
1746916802.945971,0.091,-0.034,10.075,-0.022,-0.346,-43.462,0.93036,-0.00497,-0.00119,-0.36646
1746916802.9594886,0.091,-0.038,10.075,-0.011,-0.346,-43.478,0.93036,-0.00497,-0.00119,-0.36646
1746916802.9604895,0.091,-0.038,10.075,-0.005,-0.346,-43.5,0.93036,-0.00497,-0.00119,-0.36646
1746916802.9614878,0.081,-0.019,10.051,0.0,-0.346,-43.517,0.93036,-0.00497,-0.00119,-0.36646
1746916802.9614878,0.081,-0.019,10.051,0.005,-0.346,-43.533,0.93036,-0.00497,-0.00119,-0.36646
1746916803.0204997,0.067,-0.01,10.06,0.016,-0.346,-43.555,0.93036,-0.00497,-0.00119,-0.36646
1746916803.021493,0.067,-0.01,10.06,0.022,-0.352,-43.572,0.92859,-0.00098,-0.0029,-0.37097
1746916803.0224931,0.067,-0.019,10.051,0.027,-0.352,-43.594,0.92859,-0.00098,-0.0029,-0.37097
1746916803.0234964,0.067,-0.019,10.051,0.033,-0.352,-43.616,0.92859,-0.00098,-0.0029,-0.37097
1746916803.0498579,0.081,-0.024,10.051,0.033,-0.352,-43.638,0.92859,-0.00098,-0.0029,-0.37097
1746916803.0508564,0.081,-0.024,10.051,0.038,-0.352,-43.654,0.92859,-0.00098,-0.0029,-0.37097
1746916803.0518522,0.096,-0.034,10.08,0.044,-0.352,-43.676,0.92859,-0.00098,-0.0029,-0.37097
1746916803.0528567,0.096,-0.034,10.08,0.044,-0.352,-43.704,0.92859,-0.00098,-0.0029,-0.37097
1746916803.078801,0.11,-0.024,10.075,0.049,-0.352,-43.726,0.92859,-0.00098,-0.0029,-0.37097
1746916803.0807345,0.11,-0.024,10.075,0.049,-0.357,-43.748,0.92859,-0.00098,-0.0029,-0.37097
1746916803.081734,0.11,-0.019,10.06,0.049,-0.357,-43.775,0.92859,-0.00098,-0.0029,-0.37097
1746916803.0827346,0.11,-0.019,10.06,0.055,-0.357,-43.797,0.92859,-0.00098,-0.0029,-0.37097
1746916803.1691911,0.086,-0.019,10.07,0.055,-0.357,-43.824,0.92859,-0.00098,-0.0029,-0.37097
1746916803.1991892,0.086,-0.019,10.07,0.055,-0.357,-43.846,0.92859,-0.00098,-0.0029,-0.37097
1746916803.2001903,0.062,-0.019,10.056,0.055,-0.363,-43.868,0.92859,-0.00098,-0.0029,-0.37097
1746916803.2011871,0.062,-0.019,10.056,0.055,-0.363,-43.89,0.92859,-0.00098,-0.0029,-0.37097
1746916803.2021902,0.057,-0.024,10.051,0.055,-0.363,-43.918,0.92749,-0.0007,-0.00311,-0.37372
1746916803.2041953,0.057,-0.024,10.051,0.055,-0.363,-43.94,0.92749,-0.0007,-0.00311,-0.37372
1746916803.2051876,0.081,-0.029,10.07,0.055,-0.363,-43.967,0.92749,-0.0007,-0.00311,-0.37372
1746916803.2061882,0.081,-0.029,10.07,0.055,-0.363,-43.995,0.92749,-0.0007,-0.00311,-0.37372
1746916803.2071877,0.091,-0.024,10.08,0.055,-0.363,-44.022,0.92749,-0.0007,-0.00311,-0.37372
1746916803.2081878,0.091,-0.024,10.08,0.055,-0.363,-44.05,0.92749,-0.0007,-0.00311,-0.37372
1746916803.2092023,0.091,-0.029,10.065,0.055,-0.363,-44.077,0.92749,-0.0007,-0.00311,-0.37372
1746916803.2112026,0.091,-0.029,10.065,0.055,-0.368,-44.105,0.92749,-0.0007,-0.00311,-0.37372
1746916803.2597988,0.072,-0.029,10.046,0.055,-0.368,-44.132,0.92749,-0.0007,-0.00311,-0.37372
1746916803.260801,0.072,-0.029,10.046,0.055,-0.368,-44.154,0.92749,-0.0007,-0.00311,-0.37372
1746916803.260801,0.048,-0.029,10.051,0.055,-0.368,-44.182,0.92749,-0.0007,-0.00311,-0.37372
1746916803.2618005,0.048,-0.029,10.051,0.055,-0.368,-44.203,0.92749,-0.0007,-0.00311,-0.37372
1746916803.289802,0.067,-0.024,10.065,0.049,-0.374,-44.231,0.92749,-0.0007,-0.00311,-0.37372
1746916803.3198078,0.067,-0.024,10.065,0.049,-0.374,-44.264,0.92749,-0.0007,-0.00311,-0.37372
1746916803.3208077,0.091,-0.019,10.065,0.049,-0.374,-44.291,0.92749,-0.0007,-0.00311,-0.37372
1746916803.3227985,0.091,-0.019,10.065,0.049,-0.374,-44.319,0.92618,-0.00079,-0.0032,-0.37695
1746916803.323801,0.11,-0.019,10.06,0.049,-0.374,-44.346,0.92618,-0.00079,-0.0032,-0.37695
1746916803.3247979,0.11,-0.019,10.06,0.049,-0.379,-44.374,0.92618,-0.00079,-0.0032,-0.37695
1746916803.3257985,0.115,-0.005,10.08,0.049,-0.379,-44.396,0.92618,-0.00079,-0.0032,-0.37695
1746916803.3268008,0.115,-0.005,10.08,0.049,-0.379,-44.423,0.92618,-0.00079,-0.0032,-0.37695
1746916803.3793585,0.096,-0.014,10.065,0.049,-0.379,-44.451,0.92618,-0.00079,-0.0032,-0.37695
1746916803.3813531,0.096,-0.014,10.065,0.044,-0.379,-44.467,0.92618,-0.00079,-0.0032,-0.37695
1746916803.382352,0.067,-0.019,10.046,0.044,-0.385,-44.489,0.92618,-0.00079,-0.0032,-0.37695
1746916803.3833578,0.067,-0.019,10.046,0.044,-0.385,-44.511,0.92618,-0.00079,-0.0032,-0.37695
1746916803.4083476,0.053,-0.024,10.075,0.044,-0.385,-44.533,0.92618,-0.00079,-0.0032,-0.37695
1746916803.4243486,0.053,-0.024,10.075,0.044,-0.385,-44.561,0.92618,-0.00079,-0.0032,-0.37695
1746916803.425353,0.072,-0.048,10.084,0.044,-0.385,-44.583,0.92618,-0.00079,-0.0032,-0.37695
1746916803.426347,0.072,-0.048,10.084,0.038,-0.385,-44.604,0.92618,-0.00079,-0.0032,-0.37695
1746916803.439351,0.105,-0.043,10.046,0.038,-0.385,-44.626,0.92618,-0.00079,-0.0032,-0.37695
1746916803.4413476,0.105,-0.043,10.046,0.038,-0.385,-44.648,0.92618,-0.00079,-0.0032,-0.37695
1746916803.4423468,0.086,-0.024,10.046,0.038,-0.385,-44.67,0.92618,-0.00079,-0.0032,-0.37695
1746916803.443355,0.086,-0.024,10.046,0.033,-0.39,-44.692,0.92618,-0.00079,-0.0032,-0.37695
1746916803.4988816,0.062,-0.014,10.07,0.033,-0.39,-44.714,0.92618,-0.00079,-0.0032,-0.37695
1746916803.4998822,0.062,-0.014,10.07,0.033,-0.39,-44.736,0.92477,-0.00098,-0.00327,-0.38037
1746916803.5008833,0.053,-0.019,10.075,0.033,-0.39,-44.758,0.92477,-0.00098,-0.00327,-0.38037
1746916803.5018792,0.053,-0.019,10.075,0.033,-0.39,-44.775,0.92477,-0.00098,-0.00327,-0.38037
1746916803.5298908,0.062,-0.034,10.036,0.027,-0.39,-44.791,0.92477,-0.00098,-0.00327,-0.38037
1746916803.5721352,0.062,-0.034,10.036,0.027,-0.39,-44.813,0.92477,-0.00098,-0.00327,-0.38037
1746916803.5731337,0.091,-0.024,10.06,0.027,-0.396,-44.841,0.92477,-0.00098,-0.00327,-0.38037
1746916803.5741327,0.091,-0.024,10.06,0.027,-0.396,-44.863,0.92477,-0.00098,-0.00327,-0.38037
1746916803.5751345,0.101,-0.005,10.065,0.027,-0.396,-44.885,0.92477,-0.00098,-0.00327,-0.38037
1746916803.576137,0.101,-0.005,10.065,0.022,-0.396,-44.912,0.92477,-0.00098,-0.00327,-0.38037
1746916803.5771394,0.115,-0.01,10.07,0.022,-0.396,-44.934,0.92477,-0.00098,-0.00327,-0.38037
1746916803.5771394,0.115,-0.01,10.07,0.022,-0.401,-44.956,0.92477,-0.00098,-0.00327,-0.38037
1746916803.6191282,0.124,-0.029,10.07,0.022,-0.401,-44.978,0.92477,-0.00098,-0.00327,-0.38037
1746916803.6191282,0.124,-0.029,10.07,0.022,-0.401,-45.005,0.92477,-0.00098,-0.00327,-0.38037
1746916803.6201265,0.096,-0.019,10.07,0.022,-0.401,-45.033,0.92477,-0.00098,-0.00327,-0.38037
1746916803.6201265,0.096,-0.019,10.07,0.016,-0.401,-45.055,0.92477,-0.00098,-0.00327,-0.38037
1746916803.6481369,0.072,-0.014,10.065,0.016,-0.401,-45.077,0.92365,-0.00116,-0.00333,-0.38312
1746916803.6803536,0.072,-0.014,10.065,0.016,-0.406,-45.104,0.92365,-0.00116,-0.00333,-0.38312
1746916803.6813576,0.062,-0.024,10.041,0.016,-0.406,-45.126,0.92365,-0.00116,-0.00333,-0.38312
1746916803.6823547,0.062,-0.024,10.041,0.016,-0.406,-45.148,0.92365,-0.00116,-0.00333,-0.38312
1746916803.7083614,0.062,-0.034,10.056,0.016,-0.406,-45.17,0.92365,-0.00116,-0.00333,-0.38312
1746916803.7093558,0.062,-0.034,10.056,0.011,-0.406,-45.187,0.92365,-0.00116,-0.00333,-0.38312
1746916803.7103612,0.048,-0.034,10.065,0.011,-0.406,-45.209,0.92365,-0.00116,-0.00333,-0.38312
1746916803.711359,0.048,-0.034,10.065,0.011,-0.406,-45.225,0.92365,-0.00116,-0.00333,-0.38312
1746916803.7393625,0.072,-0.024,10.065,0.011,-0.406,-45.242,0.92365,-0.00116,-0.00333,-0.38312
1746916803.7403646,0.072,-0.024,10.065,0.011,-0.406,-45.258,0.92365,-0.00116,-0.00333,-0.38312
1746916803.7413597,0.096,-0.029,10.065,0.011,-0.412,-45.275,0.92365,-0.00116,-0.00333,-0.38312
1746916803.7423587,0.096,-0.029,10.065,0.005,-0.412,-45.297,0.92365,-0.00116,-0.00333,-0.38312
1746916803.770257,0.11,-0.019,10.06,0.005,-0.412,-45.313,0.92365,-0.00116,-0.00333,-0.38312
1746916803.7712512,0.11,-0.019,10.06,0.005,-0.412,-45.335,0.92365,-0.00116,-0.00333,-0.38312
1746916803.7722473,0.105,0.0,10.089,0.005,-0.412,-45.357,0.92267,-0.00131,-0.00336,-0.38547
1746916803.77325,0.105,0.0,10.089,0.005,-0.412,-45.374,0.92267,-0.00131,-0.00336,-0.38547
1746916803.8292446,0.096,-0.005,10.08,0.005,-0.412,-45.396,0.92267,-0.00131,-0.00336,-0.38547
1746916803.83025,0.096,-0.005,10.08,0.0,-0.412,-45.417,0.92267,-0.00131,-0.00336,-0.38547
1746916803.8312504,0.096,-0.019,10.065,0.0,-0.417,-45.445,0.92267,-0.00131,-0.00336,-0.38547
1746916803.8322515,0.096,-0.019,10.065,0.0,-0.417,-45.461,0.92267,-0.00131,-0.00336,-0.38547
1746916803.8582697,0.091,-0.029,10.041,0.0,-0.417,-45.483,0.92267,-0.00131,-0.00336,-0.38547
1746916803.8596473,0.091,-0.029,10.041,0.0,-0.417,-45.505,0.92267,-0.00131,-0.00336,-0.38547
1746916803.8606389,0.077,-0.034,10.07,0.0,-0.417,-45.527,0.92267,-0.00131,-0.00336,-0.38547
1746916803.8616374,0.077,-0.034,10.07,0.0,-0.417,-45.549,0.92267,-0.00131,-0.00336,-0.38547
1746916803.889635,0.067,-0.029,10.065,0.0,-0.417,-45.571,0.92267,-0.00131,-0.00336,-0.38547
1746916803.916634,0.067,-0.029,10.065,0.0,-0.417,-45.588,0.92267,-0.00131,-0.00336,-0.38547
1746916803.9176342,0.072,-0.034,10.041,0.0,-0.417,-45.61,0.92267,-0.00131,-0.00336,-0.38547
1746916803.9186342,0.072,-0.034,10.041,0.0,-0.417,-45.632,0.92267,-0.00131,-0.00336,-0.38547
1746916803.9496477,0.062,-0.024,10.051,0.0,-0.423,-45.654,0.92267,-0.00131,-0.00336,-0.38547
1746916803.950649,0.062,-0.024,10.051,0.0,-0.423,-45.67,0.9216,-0.00146,-0.00339,-0.388
1746916803.950649,0.081,-0.024,10.07,-0.005,-0.423,-45.692,0.9216,-0.00146,-0.00339,-0.388
1746916803.951654,0.081,-0.024,10.07,-0.005,-0.423,-45.714,0.9216,-0.00146,-0.00339,-0.388
1746916803.9791913,0.086,-0.014,10.056,-0.005,-0.423,-45.731,0.9216,-0.00146,-0.00339,-0.388
1746916803.980191,0.086,-0.014,10.056,-0.005,-0.423,-45.753,0.9216,-0.00146,-0.00339,-0.388
1746916803.9811912,0.091,-0.024,10.051,-0.005,-0.423,-45.769,0.9216,-0.00146,-0.00339,-0.388
1746916803.9821846,0.091,-0.024,10.051,-0.005,-0.423,-45.791,0.9216,-0.00146,-0.00339,-0.388
1746916804.0091894,0.096,-0.029,10.065,-0.005,-0.423,-45.807,0.9216,-0.00146,-0.00339,-0.388
1746916804.030182,0.096,-0.029,10.065,-0.011,-0.428,-45.829,0.9216,-0.00146,-0.00339,-0.388
1746916804.0311875,0.096,-0.029,10.084,-0.011,-0.428,-45.846,0.9216,-0.00146,-0.00339,-0.388
1746916804.0321877,0.096,-0.029,10.084,-0.011,-0.428,-45.868,0.9216,-0.00146,-0.00339,-0.388
1746916804.0687325,0.081,-0.029,10.056,-0.011,-0.428,-45.884,0.9216,-0.00146,-0.00339,-0.388
1746916804.0697355,0.081,-0.029,10.056,-0.011,-0.428,-45.906,0.9216,-0.00146,-0.00339,-0.388
1746916804.0697355,0.072,-0.019,10.046,-0.011,-0.428,-45.923,0.9216,-0.00146,-0.00339,-0.388
1746916804.0707312,0.072,-0.019,10.046,-0.016,-0.428,-45.939,0.9216,-0.00146,-0.00339,-0.388
1746916804.0997403,0.081,-0.019,10.046,-0.016,-0.428,-45.961,0.92062,-0.00159,-0.00339,-0.39032
1746916804.1007361,0.081,-0.019,10.046,-0.016,-0.428,-45.978,0.92062,-0.00159,-0.00339,-0.39032
1746916804.1007361,0.081,-0.024,10.08,-0.016,-0.428,-45.994,0.92062,-0.00159,-0.00339,-0.39032
1746916804.1017358,0.081,-0.024,10.08,-0.016,-0.428,-46.016,0.92062,-0.00159,-0.00339,-0.39032
1746916804.1277397,0.081,-0.019,10.08,-0.016,-0.428,-46.033,0.92062,-0.00159,-0.00339,-0.39032
1746916804.1407301,0.081,-0.019,10.08,-0.016,-0.428,-46.049,0.92062,-0.00159,-0.00339,-0.39032
1746916804.1407301,0.086,-0.029,10.041,-0.016,-0.434,-46.071,0.92062,-0.00159,-0.00339,-0.39032
1746916804.141739,0.086,-0.029,10.041,-0.022,-0.434,-46.088,0.92062,-0.00159,-0.00339,-0.39032
1746916804.1892774,0.086,-0.029,10.051,-0.022,-0.434,-46.104,0.92062,-0.00159,-0.00339,-0.39032
1746916804.190276,0.086,-0.029,10.051,-0.022,-0.434,-46.121,0.92062,-0.00159,-0.00339,-0.39032
1746916804.1912758,0.101,-0.029,10.094,-0.022,-0.434,-46.137,0.92062,-0.00159,-0.00339,-0.39032
1746916804.1922765,0.101,-0.029,10.094,-0.022,-0.434,-46.154,0.92062,-0.00159,-0.00339,-0.39032
1746916804.21927,0.096,-0.024,10.065,-0.022,-0.434,-46.176,0.92062,-0.00159,-0.00339,-0.39032
1746916804.2202756,0.096,-0.024,10.065,-0.022,-0.434,-46.192,0.92062,-0.00159,-0.00339,-0.39032
1746916804.2222757,0.086,-0.01,10.041,-0.027,-0.434,-46.208,0.92062,-0.00159,-0.00339,-0.39032
1746916804.2222757,0.086,-0.01,10.041,-0.027,-0.439,-46.225,0.92062,-0.00159,-0.00339,-0.39032
1746916804.2492943,0.072,-0.014,10.089,-0.027,-0.439,-46.241,0.92062,-0.00159,-0.00339,-0.39032
1746916804.250299,0.072,-0.014,10.089,-0.027,-0.439,-46.258,0.92062,-0.00159,-0.00339,-0.39032
1746916804.2512932,0.072,-0.019,10.065,-0.027,-0.439,-46.274,0.91953,-0.00174,-0.00342,-0.39285
1746916804.2522929,0.072,-0.019,10.065,-0.027,-0.439,-46.291,0.91953,-0.00174,-0.00342,-0.39285
